ID,choice,rt,condition_int,state,contrast_left,contrast_right,reward,trials,blocks,contrast,ecoperf,condition
11,0,968,3,0,0.151050719,0.848949281,0,1,1,0,1,3
11,1,474,3,1,0.871507945,0.128492055,1,2,1,0,1,3
11,0,499,3,0,0.177716185,0.822283815,0,3,1,0,1,3
11,1,446,3,1,0.803501182,0.196498818,1,4,1,0,1,3
11,0,480,3,0,0.178823671,0.821176329,0,5,1,0,1,3
11,1,530,3,1,0.816341535,0.183658465,1,6,1,0,1,3
11,1,599,3,0,0.151777238,0.848222762,0,7,1,0,0,3
11,0,706,3,0,0.18916383,0.81083617,0,8,1,0,1,3
11,1,733,3,1,0.840095046,0.159904954,1,9,1,0,1,3
11,1,664,3,1,0.834533115,0.165466885,1,10,1,0,1,3
11,0,579,3,1,0.818707065,0.181292935,1,11,1,0,0,3
11,0,781,3,0,0.173686327,0.826313673,0,12,1,0,1,3
11,1,697,3,1,0.850298859,0.149701141,1,13,1,0,1,3
11,1,721,3,1,0.847095005,0.152904995,1,14,1,0,1,3
11,1,716,3,0,0.154002393,0.845997607,0,15,1,0,0,3
11,0,594,3,1,0.862511236,0.137488764,1,16,1,0,0,3
11,1,842,3,0,0.198281472,0.801718528,0,17,1,0,0,3
11,0,638,3,1,0.825612942,0.174387058,1,18,1,0,0,3
11,0,737,3,1,0.855812181,0.144187819,1,19,1,0,0,3
11,0,787,3,0,0.12702694,0.87297306,0,20,1,0,1,3
11,1,797,3,0,0.198395157,0.801604843,0,21,1,0,0,3
11,0,770,3,0,0.183016039,0.816983961,0,22,1,0,1,3
11,0,724,3,1,0.865179531,0.134820469,1,23,1,0,0,3
11,1,777,3,0,0.127453187,0.872546813,0,24,1,0,0,3
11,0,914,3,0,0.163503913,0.836496087,0,25,1,0,1,3
11,0,933,2,1,0.557978504,0.442021496,0,1,2,1,1,2
11,0,628,2,1,0.543494079,0.456505921,0,2,2,1,1,2
11,0,875,2,0,0.465045207,0.534954793,1,3,2,1,0,2
11,0,669,2,1,0.55663709,0.44336291,0,4,2,1,1,2
11,1,696,2,0,0.44128413,0.55871587,1,5,2,1,1,2
11,0,722,2,0,0.474507397,0.525492603,1,6,2,1,0,2
11,0,852,2,0,0.432705157,0.567294843,1,7,2,1,0,2
11,0,992,2,1,0.524293279,0.475706721,0,8,2,1,1,2
11,1,690,2,0,0.452082814,0.547917186,1,9,2,1,1,2
11,1,818,2,0,0.42975459,0.57024541,1,10,2,1,1,2
11,1,858,2,0,0.428042794,0.571957206,1,11,2,1,1,2
11,0,822,2,1,0.529569409,0.470430591,0,12,2,1,1,2
11,0,822,2,1,0.531069252,0.468930748,0,13,2,1,1,2
11,1,895,2,0,0.436770716,0.563229284,1,14,2,1,1,2
11,0,821,2,1,0.521343205,0.478656795,0,15,2,1,1,2
11,0,931,2,1,0.503846549,0.496153451,0,16,2,1,1,2
11,0,745,2,1,0.541611213,0.458388787,0,17,2,1,1,2
11,0,774,2,1,0.565045005,0.434954995,0,18,2,1,1,2
11,0,763,2,1,0.570686607,0.429313393,0,19,2,1,1,2
11,1,851,2,0,0.434472491,0.565527509,1,20,2,1,1,2
11,1,976,2,0,0.435662471,0.564337529,1,21,2,1,1,2
11,1,955,2,0,0.464754749,0.535245251,1,22,2,1,1,2
11,1,921,2,0,0.438910633,0.561089367,1,23,2,1,1,2
11,0,792,2,1,0.500057586,0.499942414,0,24,2,1,1,2
11,0,909,2,1,0.509254751,0.490745249,0,25,2,1,1,2
11,1,446,4,0,0.137651192,0.862348808,0,1,3,0,0,4
11,0,490,4,0,0.184093718,0.815906282,0,2,3,0,1,4
11,1,619,4,0,0.198162173,0.801837827,0,3,3,0,0,4
11,1,599,4,0,0.168581146,0.831418854,0,4,3,0,0,4
11,0,564,4,0,0.165090948,0.834909052,0,5,3,0,1,4
11,0,840,4,0,0.147729429,0.852270571,0,6,3,0,1,4
11,1,802,4,1,0.866551915,0.133448085,1,7,3,0,1,4
11,0,814,4,0,0.188652037,0.811347963,0,8,3,0,1,4
11,1,746,4,1,0.851709699,0.148290301,1,9,3,0,1,4
11,1,887,4,1,0.838720163,0.161279837,1,10,3,0,1,4
11,1,815,4,1,0.878246803,0.121753197,1,11,3,0,1,4
11,1,799,4,1,0.815537205,0.184462795,1,12,3,0,1,4
11,1,774,4,1,0.81310737,0.18689263,1,13,3,0,1,4
11,0,801,4,0,0.132662823,0.867337177,0,14,3,0,1,4
11,0,719,4,0,0.149505563,0.850494437,0,15,3,0,1,4
11,1,586,4,1,0.879616394,0.120383606,1,16,3,0,1,4
11,1,755,4,1,0.806447562,0.193552438,1,17,3,0,1,4
11,1,812,4,1,0.80010523,0.19989477,1,18,3,0,1,4
11,0,746,4,0,0.126948431,0.873051569,0,19,3,0,1,4
11,0,709,4,0,0.180361806,0.819638194,0,20,3,0,1,4
11,1,773,4,1,0.832671723,0.167328277,1,21,3,0,1,4
11,1,787,4,1,0.864045993,0.135954007,1,22,3,0,1,4
11,0,759,4,0,0.188886067,0.811113933,0,23,3,0,1,4
11,0,903,4,0,0.132715753,0.867284247,0,24,3,0,1,4
11,1,849,4,1,0.819748057,0.180251943,1,25,3,0,1,4
11,0,558,4,0,0.125357805,0.874642195,1,1,4,1,0,4
11,0,518,4,1,0.82773803,0.17226197,0,2,4,1,1,4
11,0,486,4,1,0.826789722,0.173210278,0,3,4,1,1,4
11,1,541,4,0,0.180947223,0.819052777,1,4,4,1,1,4
11,0,462,4,0,0.156145803,0.843854197,1,5,4,1,0,4
11,0,554,4,0,0.139488193,0.860511807,1,6,4,1,0,4
11,1,678,4,0,0.132976544,0.867023456,1,7,4,1,1,4
11,0,729,4,1,0.830107522,0.169892478,0,8,4,1,1,4
11,1,581,4,0,0.14929733,0.85070267,1,9,4,1,1,4
11,0,543,4,1,0.841320758,0.158679242,0,10,4,1,1,4
11,0,526,4,1,0.830004102,0.169995898,0,11,4,1,1,4
11,0,537,4,1,0.828775085,0.171224915,0,12,4,1,1,4
11,0,480,4,1,0.866167112,0.133832888,0,13,4,1,1,4
11,0,495,4,1,0.842978767,0.157021233,0,14,4,1,1,4
11,1,407,4,0,0.142034631,0.857965369,1,15,4,1,1,4
11,0,572,4,1,0.828226319,0.171773681,0,16,4,1,1,4
11,1,776,4,0,0.179694278,0.820305722,1,17,4,1,1,4
11,1,734,4,0,0.149623948,0.850376052,1,18,4,1,1,4
11,0,582,4,1,0.818403168,0.181596832,0,19,4,1,1,4
11,0,598,4,1,0.862461857,0.137538143,0,20,4,1,1,4
11,1,704,4,0,0.150265419,0.849734581,1,21,4,1,1,4
11,0,704,4,1,0.810765424,0.189234576,0,22,4,1,1,4
11,1,730,4,0,0.123423542,0.876576458,1,23,4,1,1,4
11,1,815,4,0,0.156467375,0.843532625,1,24,4,1,1,4
11,0,689,4,1,0.866214865,0.133785135,0,25,4,1,1,4
11,0,535,3,1,0.87376785,0.12623215,0,1,5,1,1,3
11,1,426,3,0,0.180009944,0.819990056,1,2,5,1,1,3
11,0,382,3,1,0.849928247,0.150071753,0,3,5,1,1,3
11,0,480,3,1,0.809944655,0.190055345,0,4,5,1,1,3
11,0,488,3,1,0.849974855,0.150025145,0,5,5,1,1,3
11,1,463,3,0,0.127785546,0.872214454,1,6,5,1,1,3
11,1,428,3,0,0.149801134,0.850198866,1,7,5,1,1,3
11,0,391,3,1,0.805207753,0.194792247,0,8,5,1,1,3
11,1,420,3,0,0.132804908,0.867195092,1,9,5,1,1,3
11,1,457,3,0,0.165516086,0.834483914,1,10,5,1,1,3
11,0,529,3,0,0.157140912,0.842859088,1,11,5,1,0,3
11,0,497,3,0,0.137356509,0.862643491,1,12,5,1,0,3
11,1,615,3,0,0.174077104,0.825922896,1,13,5,1,1,3
11,1,616,3,0,0.169606709,0.830393291,1,14,5,1,1,3
11,0,698,3,1,0.8234751,0.1765249,0,15,5,1,1,3
11,0,472,3,1,0.809079798,0.190920202,0,16,5,1,1,3
11,0,356,3,1,0.834373396,0.165626604,0,17,5,1,1,3
11,1,394,3,0,0.168805289,0.831194711,1,18,5,1,1,3
11,0,527,3,1,0.807174375,0.192825625,0,19,5,1,1,3
11,0,453,3,1,0.874907903,0.125092097,0,20,5,1,1,3
11,0,518,3,1,0.808963965,0.191036035,0,21,5,1,1,3
11,0,521,3,1,0.803889381,0.196110619,0,22,5,1,1,3
11,1,515,3,0,0.183106189,0.816893811,1,23,5,1,1,3
11,1,525,3,0,0.149239608,0.850760392,1,24,5,1,1,3
11,0,312,3,1,0.879963815,0.120036185,0,25,5,1,1,3
11,0,832,2,1,0.552572788,0.447427212,1,1,6,0,0,2
11,0,804,2,0,0.485837993,0.514162007,0,2,6,0,1,2
11,1,643,2,1,0.562925353,0.437074647,1,3,6,0,1,2
11,1,883,2,1,0.505553074,0.494446926,1,4,6,0,1,2
11,0,607,2,1,0.564820526,0.435179474,1,5,6,0,0,2
11,0,623,2,1,0.551832395,0.448167605,1,6,6,0,0,2
11,0,765,2,0,0.422213056,0.577786944,0,7,6,0,1,2
11,1,743,2,0,0.476048675,0.523951325,0,8,6,0,0,2
11,0,657,2,1,0.53495334,0.46504666,1,9,6,0,0,2
11,1,776,2,0,0.443018825,0.556981175,0,10,6,0,0,2
11,1,809,2,1,0.538765248,0.461234752,1,11,6,0,1,2
11,1,679,2,1,0.578327977,0.421672023,1,12,6,0,1,2
11,0,822,2,1,0.529961917,0.470038083,1,13,6,0,0,2
11,0,646,2,0,0.437131883,0.562868117,0,14,6,0,1,2
11,0,934,2,0,0.478888107,0.521111893,0,15,6,0,1,2
11,1,830,2,1,0.535079017,0.464920983,1,16,6,0,1,2
11,0,686,2,0,0.440711681,0.559288319,0,17,6,0,1,2
11,1,645,2,1,0.522181153,0.477818847,1,18,6,0,1,2
11,0,685,2,0,0.487687368,0.512312632,0,19,6,0,1,2
11,0,615,2,0,0.46244245,0.53755755,0,20,6,0,1,2
11,1,534,2,1,0.554784692,0.445215308,1,21,6,0,1,2
11,0,591,2,0,0.468847172,0.531152828,0,22,6,0,1,2
11,1,598,2,0,0.488301359,0.511698641,0,23,6,0,0,2
11,0,543,2,0,0.456478655,0.543521345,0,24,6,0,1,2
11,0,903,2,1,0.501741166,0.498258834,1,25,6,0,0,2
11,1,631,1,0,0.447907124,0.552092876,1,1,7,1,1,1
11,0,495,1,1,0.537842575,0.462157425,0,2,7,1,1,1
11,0,597,1,1,0.504759939,0.495240061,0,3,7,1,1,1
11,0,775,1,0,0.496033588,0.503966412,1,4,7,1,0,1
11,0,619,1,1,0.554169992,0.445830008,0,5,7,1,1,1
11,0,776,1,1,0.524639463,0.475360537,0,6,7,1,1,1
11,1,733,1,0,0.439302345,0.560697655,1,7,7,1,1,1
11,0,783,1,0,0.49760382,0.50239618,1,8,7,1,0,1
11,0,777,1,1,0.513771854,0.486228146,0,9,7,1,1,1
11,1,677,1,0,0.465048793,0.534951207,1,10,7,1,1,1
11,1,896,1,0,0.496046314,0.503953686,1,11,7,1,1,1
11,1,719,1,1,0.557137869,0.442862131,0,12,7,1,0,1
11,1,605,1,0,0.436049715,0.563950285,1,13,7,1,1,1
11,0,511,1,1,0.569724968,0.430275032,0,14,7,1,1,1
11,0,633,1,1,0.529876712,0.470123288,0,15,7,1,1,1
11,1,655,1,0,0.454632645,0.545367355,1,16,7,1,1,1
11,0,961,1,1,0.53598877,0.46401123,0,17,7,1,1,1
11,1,712,1,0,0.427179211,0.572820789,1,18,7,1,1,1
11,0,969,1,1,0.550103878,0.449896122,0,19,7,1,1,1
11,0,709,1,1,0.536017711,0.463982289,0,20,7,1,1,1
11,0,789,1,0,0.456873533,0.543126467,1,21,7,1,0,1
11,0,618,1,1,0.51408331,0.48591669,0,22,7,1,1,1
11,1,545,1,0,0.427997908,0.572002092,1,23,7,1,1,1
11,0,522,1,1,0.569033381,0.430966619,0,24,7,1,1,1
11,1,535,1,0,0.430687776,0.569312224,1,25,7,1,1,1
11,0,696,1,1,0.546274516,0.453725484,1,1,8,0,0,1
11,0,453,1,1,0.55966983,0.44033017,1,2,8,0,0,1
11,0,584,1,0,0.463163453,0.536836547,0,3,8,0,1,1
11,1,541,1,1,0.574861561,0.425138439,1,4,8,0,1,1
11,1,610,1,1,0.521827471,0.478172529,1,5,8,0,1,1
11,1,611,1,0,0.476643555,0.523356445,0,6,8,0,0,1
11,0,591,1,0,0.475405499,0.524594501,0,7,8,0,1,1
11,1,516,1,1,0.525681103,0.474318897,1,8,8,0,1,1
11,0,465,1,0,0.424494026,0.575505974,0,9,8,0,1,1
11,0,497,1,0,0.424804068,0.575195932,0,10,8,0,1,1
11,1,522,1,1,0.524635558,0.475364442,1,11,8,0,1,1
11,1,497,1,1,0.51944493,0.48055507,1,12,8,0,1,1
11,1,576,1,0,0.456827385,0.543172615,0,13,8,0,0,1
11,1,646,1,1,0.537120583,0.462879417,1,14,8,0,1,1
11,0,529,1,0,0.491775017,0.508224983,0,15,8,0,1,1
11,1,725,1,0,0.459934545,0.540065455,0,16,8,0,0,1
11,0,570,1,1,0.547847682,0.452152318,1,17,8,0,0,1
11,0,742,1,0,0.467112462,0.532887538,0,18,8,0,1,1
11,0,580,1,1,0.574154588,0.425845412,1,19,8,0,0,1
11,0,563,1,1,0.55430682,0.44569318,1,20,8,0,0,1
11,1,551,1,0,0.49410477,0.50589523,0,21,8,0,0,1
11,1,653,1,0,0.452115229,0.547884771,0,22,8,0,0,1
11,0,579,1,1,0.565394371,0.434605629,1,23,8,0,0,1
11,0,599,1,1,0.540302406,0.459697594,1,24,8,0,0,1
11,0,663,1,0,0.489072523,0.510927477,0,25,8,0,1,1
11,1,662,2,0,0.434218786,0.565781214,0,1,9,0,0,2
11,0,447,2,0,0.490866318,0.509133682,0,2,9,0,1,2
11,0,517,2,0,0.452442029,0.547557971,0,3,9,0,1,2
11,0,746,2,0,0.478446624,0.521553376,0,4,9,0,1,2
11,0,745,2,0,0.464115177,0.535884823,0,5,9,0,1,2
11,0,662,2,0,0.42252415,0.57747585,0,6,9,0,1,2
11,0,796,2,1,0.502732376,0.497267624,1,7,9,0,0,2
11,0,811,2,0,0.48379967,0.51620033,0,8,9,0,1,2
11,1,617,2,1,0.530295882,0.469704118,1,9,9,0,1,2
11,1,728,2,0,0.49962339,0.50037661,0,10,9,0,0,2
11,0,512,2,1,0.508837442,0.491162558,1,11,9,0,0,2
11,1,693,2,1,0.54300507,0.45699493,1,12,9,0,1,2
11,0,701,2,0,0.45295532,0.54704468,0,13,9,0,1,2
11,1,612,2,1,0.522546889,0.477453111,1,14,9,0,1,2
11,0,677,2,0,0.470295503,0.529704497,0,15,9,0,1,2
11,1,582,2,1,0.577130123,0.422869877,1,16,9,0,1,2
11,0,533,2,0,0.424359564,0.575640436,0,17,9,0,1,2
11,0,556,2,0,0.474763346,0.525236654,0,18,9,0,1,2
11,1,496,2,1,0.579455036,0.420544964,1,19,9,0,1,2
11,1,475,2,1,0.520214357,0.479785643,1,20,9,0,1,2
11,1,447,2,1,0.532665291,0.467334709,1,21,9,0,1,2
11,1,535,2,1,0.51353505,0.48646495,1,22,9,0,1,2
11,1,568,2,0,0.481393412,0.518606588,0,23,9,0,0,2
11,1,579,2,1,0.52204424,0.47795576,1,24,9,0,1,2
11,1,570,2,1,0.530545289,0.469454711,1,25,9,0,1,2
11,1,694,3,0,0.169985265,0.830014735,1,1,10,1,1,3
11,0,449,3,1,0.856071962,0.143928038,0,2,10,1,1,3
11,0,489,3,1,0.850749126,0.149250874,0,3,10,1,1,3
11,0,559,3,1,0.807375131,0.192624869,0,4,10,1,1,3
11,0,459,3,1,0.870220649,0.129779351,0,5,10,1,1,3
11,1,351,3,0,0.13763498,0.86236502,1,6,10,1,1,3
11,0,318,3,1,0.806497046,0.193502954,0,7,10,1,1,3
11,0,429,3,1,0.804247602,0.195752398,0,8,10,1,1,3
11,1,381,3,0,0.171358336,0.828641664,1,9,10,1,1,3
11,1,433,3,0,0.15838038,0.84161962,1,10,10,1,1,3
11,0,408,3,1,0.855658295,0.144341705,0,11,10,1,1,3
11,0,345,3,1,0.863088708,0.136911292,0,12,10,1,1,3
11,1,438,3,0,0.146731458,0.853268542,1,13,10,1,1,3
11,0,485,3,1,0.801268431,0.198731569,0,14,10,1,1,3
11,1,552,3,0,0.134602284,0.865397716,1,15,10,1,1,3
11,1,616,3,0,0.155313877,0.844686123,1,16,10,1,1,3
11,1,799,3,1,0.855866637,0.144133363,0,17,10,1,0,3
11,1,522,3,0,0.176393933,0.823606067,1,18,10,1,1,3
11,1,401,3,0,0.153028512,0.846971488,1,19,10,1,1,3
11,1,394,3,0,0.137230404,0.862769596,1,20,10,1,1,3
11,0,434,3,1,0.825413216,0.174586784,0,21,10,1,1,3
11,1,385,3,0,0.130032539,0.869967461,1,22,10,1,1,3
11,1,382,3,0,0.173077707,0.826922293,1,23,10,1,1,3
11,1,398,3,0,0.180818826,0.819181174,1,24,10,1,1,3
11,0,323,3,1,0.810018716,0.189981284,0,25,10,1,1,3
11,1,467,2,0,0.435587536,0.564412464,1,1,11,1,1,2
11,0,384,2,1,0.562570685,0.437429315,0,2,11,1,1,2
11,1,463,2,0,0.43395757,0.56604243,1,3,11,1,1,2
11,0,368,2,1,0.574527151,0.425472849,0,4,11,1,1,2
11,0,442,2,1,0.524436343,0.475563657,0,5,11,1,1,2
11,0,472,2,1,0.503744379,0.496255621,0,6,11,1,1,2
11,0,464,2,1,0.504157199,0.495842801,0,7,11,1,1,2
11,1,475,2,0,0.470526801,0.529473199,1,8,11,1,1,2
11,1,425,2,0,0.456190392,0.543809608,1,9,11,1,1,2
11,1,396,2,0,0.456319155,0.543680845,1,10,11,1,1,2
11,0,335,2,0,0.428010478,0.571989522,1,11,11,1,0,2
11,0,566,2,1,0.501782032,0.498217968,0,12,11,1,1,2
11,1,464,2,0,0.454193193,0.545806807,1,13,11,1,1,2
11,1,465,2,0,0.478242551,0.521757449,1,14,11,1,1,2
11,1,434,2,0,0.456936248,0.543063752,1,15,11,1,1,2
11,0,444,2,1,0.548969738,0.451030262,0,16,11,1,1,2
11,0,463,2,0,0.493661436,0.506338564,1,17,11,1,0,2
11,1,528,2,0,0.459357009,0.540642991,1,18,11,1,1,2
11,0,500,2,1,0.510122453,0.489877547,0,19,11,1,1,2
11,0,473,2,1,0.512427408,0.487572592,0,20,11,1,1,2
11,0,396,2,1,0.510961167,0.489038833,0,21,11,1,1,2
11,1,468,2,0,0.441391344,0.558608656,1,22,11,1,1,2
11,0,435,2,1,0.540639257,0.459360743,0,23,11,1,1,2
11,0,477,2,1,0.521715848,0.478284152,0,24,11,1,1,2
11,0,656,2,0,0.478184972,0.521815028,1,25,11,1,0,2
11,0,1,4,0,0.191631434,0.808368566,0,1,12,0,1,4
11,0,360,4,1,0.845422859,0.154577141,1,2,12,0,0,4
11,0,403,4,1,0.8337228,0.1662772,1,3,12,0,0,4
11,1,386,4,0,0.144740258,0.855259742,0,4,12,0,0,4
11,1,353,4,0,0.160219016,0.839780984,0,5,12,0,0,4
11,0,368,4,1,0.811088264,0.188911736,1,6,12,0,0,4
11,0,372,4,1,0.828141128,0.171858872,1,7,12,0,0,4
11,1,390,4,0,0.178119198,0.821880802,0,8,12,0,0,4
11,1,338,4,1,0.822121731,0.177878269,1,9,12,0,1,4
11,0,397,4,0,0.131283268,0.868716732,0,10,12,0,1,4
11,1,381,4,1,0.821458585,0.178541415,1,11,12,0,1,4
11,0,522,4,0,0.144516865,0.855483135,0,12,12,0,1,4
11,0,507,4,0,0.183485976,0.816514024,0,13,12,0,1,4
11,1,403,4,1,0.815874511,0.184125489,1,14,12,0,1,4
11,1,458,4,1,0.855308097,0.144691903,1,15,12,0,1,4
11,0,526,4,0,0.181267885,0.818732115,0,16,12,0,1,4
11,1,411,4,1,0.829143213,0.170856787,1,17,12,0,1,4
11,0,408,4,0,0.191731822,0.808268178,0,18,12,0,1,4
11,1,447,4,1,0.864151985,0.135848015,1,19,12,0,1,4
11,0,426,4,1,0.850620305,0.149379695,1,20,12,0,0,4
11,1,487,4,1,0.87073844,0.12926156,1,21,12,0,1,4
11,0,473,4,0,0.186106498,0.813893502,0,22,12,0,1,4
11,0,485,4,0,0.133099047,0.866900953,0,23,12,0,1,4
11,0,443,4,0,0.163281178,0.836718822,0,24,12,0,1,4
11,0,502,4,0,0.179067999,0.820932001,0,25,12,0,1,4
11,1,490,4,1,0.800864042,0.199135958,0,1,13,1,0,4
11,1,443,4,0,0.170906024,0.829093976,1,2,13,1,1,4
11,1,541,4,0,0.122637108,0.877362892,1,3,13,1,1,4
11,0,525,4,1,0.872666036,0.127333964,0,4,13,1,1,4
11,1,748,4,0,0.137374264,0.862625736,1,5,13,1,1,4
11,1,526,4,0,0.132308793,0.867691207,1,6,13,1,1,4
11,1,532,4,0,0.147184845,0.852815155,1,7,13,1,1,4
11,1,495,4,0,0.165990702,0.834009298,1,8,13,1,1,4
11,1,608,4,0,0.174351352,0.825648648,1,9,13,1,1,4
11,0,818,4,1,0.839045892,0.160954108,0,10,13,1,1,4
11,1,603,4,0,0.150319747,0.849680253,1,11,13,1,1,4
11,0,473,4,1,0.825849383,0.174150617,0,12,13,1,1,4
11,0,491,4,1,0.870283196,0.129716804,0,13,13,1,1,4
11,0,446,4,1,0.826584227,0.173415773,0,14,13,1,1,4
11,1,465,4,0,0.176109031,0.823890969,1,15,13,1,1,4
11,1,495,4,0,0.137825871,0.862174129,1,16,13,1,1,4
11,0,382,4,1,0.831323162,0.168676838,0,17,13,1,1,4
11,0,473,4,1,0.815858449,0.184141551,0,18,13,1,1,4
11,0,498,4,1,0.854350927,0.145649073,0,19,13,1,1,4
11,1,499,4,0,0.154477413,0.845522587,1,20,13,1,1,4
11,1,644,4,0,0.187184153,0.812815847,1,21,13,1,1,4
11,0,655,4,1,0.85150116,0.14849884,0,22,13,1,1,4
11,0,457,4,1,0.859321985,0.140678015,0,23,13,1,1,4
11,1,517,4,0,0.124691122,0.875308878,1,24,13,1,1,4
11,0,491,4,1,0.824496001,0.175503999,0,25,13,1,1,4
11,0,523,3,1,0.850042122,0.149957878,1,1,14,0,0,3
11,1,680,3,0,0.167051752,0.832948248,0,2,14,0,0,3
11,0,540,3,1,0.860429976,0.139570024,1,3,14,0,0,3
11,1,531,3,1,0.866118593,0.133881407,1,4,14,0,1,3
11,1,532,3,1,0.823569576,0.176430424,1,5,14,0,1,3
11,0,515,3,0,0.152364126,0.847635874,0,6,14,0,1,3
11,1,517,3,0,0.185010495,0.814989505,0,7,14,0,0,3
11,0,545,3,0,0.122000787,0.877999213,0,8,14,0,1,3
11,0,469,3,0,0.173357034,0.826642966,0,9,14,0,1,3
11,0,542,3,0,0.19064097,0.80935903,0,10,14,0,1,3
11,1,529,3,1,0.855028732,0.144971268,1,11,14,0,1,3
11,1,654,3,1,0.82058866,0.17941134,1,12,14,0,1,3
11,0,597,3,0,0.185419552,0.814580448,0,13,14,0,1,3
11,1,643,3,1,0.80302365,0.19697635,1,14,14,0,1,3
11,0,845,3,0,0.192382437,0.807617563,0,15,14,0,1,3
11,1,542,3,1,0.844722674,0.155277326,1,16,14,0,1,3
11,1,750,3,0,0.14519317,0.85480683,0,17,14,0,0,3
11,1,686,3,0,0.124299588,0.875700412,0,18,14,0,0,3
11,1,540,3,0,0.144939197,0.855060803,0,19,14,0,0,3
11,0,509,3,1,0.810485366,0.189514634,1,20,14,0,0,3
11,0,491,3,1,0.82147479,0.17852521,1,21,14,0,0,3
11,0,682,3,1,0.827706242,0.172293758,1,22,14,0,0,3
11,1,646,3,0,0.152296568,0.847703432,0,23,14,0,0,3
11,1,594,3,1,0.803631121,0.196368879,1,24,14,0,1,3
11,0,551,3,1,0.861468795,0.138531205,1,25,14,0,0,3
11,1,579,1,1,0.559910969,0.440089031,0,1,15,1,0,1
11,1,685,1,1,0.569045609,0.430954391,0,2,15,1,0,1
11,0,673,1,0,0.460252692,0.539747308,1,3,15,1,0,1
11,0,672,1,1,0.565052686,0.434947314,0,4,15,1,1,1
11,1,775,1,0,0.467659093,0.532340907,1,5,15,1,1,1
11,1,777,1,0,0.446508403,0.553491597,1,6,15,1,1,1
11,0,623,1,1,0.531584132,0.468415868,0,7,15,1,1,1
11,0,798,1,0,0.465023834,0.534976166,1,8,15,1,0,1
11,1,851,1,1,0.572620075,0.427379925,0,9,15,1,0,1
11,1,737,1,1,0.541889146,0.458110854,0,10,15,1,0,1
11,1,830,1,0,0.486445701,0.513554299,1,11,15,1,1,1
11,0,634,1,1,0.506256046,0.493743954,0,12,15,1,1,1
11,0,712,1,1,0.502771855,0.497228145,0,13,15,1,1,1
11,0,735,1,1,0.570873298,0.429126702,0,14,15,1,1,1
11,1,627,1,0,0.485232812,0.514767188,1,15,15,1,1,1
11,1,648,1,1,0.572440494,0.427559506,0,16,15,1,0,1
11,0,571,1,1,0.503549171,0.496450829,0,17,15,1,1,1
11,0,628,1,0,0.479283205,0.520716795,1,18,15,1,0,1
11,0,648,1,1,0.547795125,0.452204875,0,19,15,1,1,1
11,1,634,1,0,0.446965171,0.553034829,1,20,15,1,1,1
11,0,657,1,0,0.487042717,0.512957283,1,21,15,1,0,1
11,1,566,1,0,0.46853949,0.53146051,1,22,15,1,1,1
11,1,694,1,0,0.470918074,0.529081926,1,23,15,1,1,1
11,1,776,1,0,0.486640095,0.513359905,1,24,15,1,1,1
11,0,689,1,0,0.437022062,0.562977938,1,25,15,1,0,1
11,1,663,1,0,0.482427064,0.517572936,0,1,16,0,0,1
11,0,562,1,0,0.425332942,0.574667058,0,2,16,0,1,1
11,0,680,1,1,0.530279414,0.469720586,1,3,16,0,0,1
11,1,608,1,0,0.485245853,0.514754147,0,4,16,0,0,1
11,1,664,1,0,0.43145584,0.56854416,0,5,16,0,0,1
11,0,642,1,1,0.564339708,0.435660292,1,6,16,0,0,1
11,1,823,1,1,0.534717631,0.465282369,1,7,16,0,1,1
11,1,791,1,1,0.532910843,0.467089157,1,8,16,0,1,1
11,1,771,1,1,0.537475901,0.462524099,1,9,16,0,1,1
11,0,700,1,0,0.420267413,0.579732587,0,10,16,0,1,1
11,1,639,1,0,0.458619409,0.541380591,0,11,16,0,0,1
11,0,774,1,0,0.442515206,0.557484794,0,12,16,0,1,1
11,0,816,1,1,0.527015681,0.472984319,1,13,16,0,0,1
11,1,699,1,1,0.541656462,0.458343538,1,14,16,0,1,1
11,1,873,1,0,0.476320354,0.523679646,0,15,16,0,0,1
11,1,820,1,1,0.568168835,0.431831165,1,16,16,0,1,1
11,1,795,1,1,0.504187537,0.495812463,1,17,16,0,1,1
11,0,764,1,0,0.484298822,0.515701178,0,18,16,0,1,1
11,0,668,1,1,0.518237158,0.481762842,1,19,16,0,0,1
11,0,805,1,0,0.428472558,0.571527442,0,20,16,0,1,1
11,1,739,1,1,0.536587784,0.463412216,1,21,16,0,1,1
11,0,890,1,0,0.461601189,0.538398811,0,22,16,0,1,1
11,0,843,1,0,0.487102099,0.512897901,0,23,16,0,1,1
11,1,785,1,1,0.510976401,0.489023599,1,24,16,0,1,1
11,0,750,1,0,0.44014535,0.55985465,0,25,16,0,1,1
12,1,711.670000000158,2,1,0.575268431144448,0.424731568855551,0,1,1,1,0,2
12,1,616.594999999972,2,0,0.462646188597919,0.53735381140208,1,2,1,1,1,2
12,1,526.315000000177,2,0,0.426294216384432,0.573705783615567,1,3,1,1,1,2
12,0,421.725000000325,2,1,0.569018175621754,0.430981824378245,0,4,1,1,1,2
12,1,571.034999999916,2,0,0.477452368704702,0.522547631295297,1,5,1,1,1,2
12,0,463.694999999832,2,1,0.579677148683255,0.420322851316744,0,6,1,1,1,2
12,1,481.110000000335,2,0,0.427659419241501,0.572340580758498,1,7,1,1,1,2
12,0,578.755000000121,2,1,0.510599258229999,0.48940074177,0,8,1,1,1,2
12,1,498.570000000298,2,0,0.429506608509071,0.570493391490928,1,9,1,1,1,2
12,1,605.979999999748,2,0,0.464008061413515,0.535991938586484,1,10,1,1,1,2
12,1,527.115000000456,2,0,0.454212322226124,0.545787677773875,1,11,1,1,1,2
12,0,541.07499999972,2,1,0.561378070330432,0.438621929669567,0,12,1,1,1,2
12,0,470.225000000093,2,1,0.565880551180361,0.434119448819639,0,13,1,1,1,2
12,1,464.889999999664,2,0,0.424140606951881,0.575859393048118,1,14,1,1,1,2
12,0,415.494999999646,2,1,0.509600379516838,0.490399620483161,0,15,1,1,1,2
12,0,599.739999999525,2,0,0.474140870525647,0.525859129474352,1,16,1,1,0,2
12,1,714.795000000391,2,0,0.48493230328666,0.515067696713339,1,17,1,1,1,2
12,0,439.510000000242,2,1,0.545330218804017,0.454669781195983,0,18,1,1,1,2
12,0,426.97499999986,2,1,0.513040060679821,0.486959939320178,0,19,1,1,1,2
12,0,519.365000000223,2,1,0.526059769832152,0.473940230167847,0,20,1,1,1,2
12,1,665.139999999897,2,0,0.464170512837302,0.535829487162697,1,21,1,1,1,2
12,0,518.364999999757,2,1,0.5648082453523,0.435191754647699,0,22,1,1,1,2
12,1,556.939999999944,2,0,0.475881080065659,0.52411891993434,1,23,1,1,1,2
12,1,533.879999999888,2,0,0.44017520178991,0.559824798210089,1,24,1,1,1,2
12,0,548.334999999962,2,1,0.535892653484695,0.464107346515304,0,25,1,1,1,2
12,1,518.330000000773,4,0,0.128955691384337,0.871044308615662,0,1,2,0,0,4
12,1,439.20500000054,4,1,0.803229391302027,0.196770608697973,1,2,2,0,1,4
12,0,433.079999999841,4,0,0.1486182623137,0.8513817376863,0,3,2,0,1,4
12,1,411.460000000195,4,1,0.862087999263279,0.13791200073672,1,4,2,0,1,4
12,1,455.16500000027,4,1,0.862906420993217,0.137093579006782,1,5,2,0,1,4
12,0,401.359999999869,4,0,0.180901296623177,0.819098703376822,0,6,2,0,1,4
12,0,523.249999999301,4,0,0.164863085900645,0.835136914099354,0,7,2,0,1,4
12,1,485.805000000167,4,1,0.865339304077253,0.134660695922746,1,8,2,0,1,4
12,0,425.604999999282,4,0,0.192106053536887,0.807893946463112,0,9,2,0,1,4
12,1,389.290000000037,4,1,0.858015981244111,0.141984018755888,1,10,2,0,1,4
12,1,430.490000000689,4,1,0.806171181672939,0.193828818327061,1,11,2,0,1,4
12,1,472.32499999972,4,1,0.829112758308275,0.170887241691724,1,12,2,0,1,4
12,1,476.18499999959,4,1,0.846708506192368,0.153291493807631,1,13,2,0,1,4
12,0,423.939999999711,4,0,0.147344566578758,0.852655433421241,0,14,2,0,1,4
12,1,468.245000000111,4,1,0.818966655666905,0.181033344333094,1,15,2,0,1,4
12,0,460.575000000186,4,0,0.147515613557361,0.852484386442638,0,16,2,0,1,4
12,0,388.994999999413,4,0,0.197907310647447,0.802092689352552,0,17,2,0,1,4
12,0,439.339999999851,4,0,0.156493166294823,0.843506833705176,0,18,2,0,1,4
12,1,466.500000000465,4,1,0.861855776625833,0.138144223374166,1,19,2,0,1,4
12,0,381.419999999925,4,0,0.123321664168934,0.876678335831065,0,20,2,0,1,4
12,0,524.875,4,0,0.19876755905794,0.801232440942059,0,21,2,0,1,4
12,0,429.794999999925,4,0,0.172799676595384,0.827200323404615,0,22,2,0,1,4
12,1,504.295000000391,4,1,0.818465999958051,0.181534000041948,1,23,2,0,1,4
12,1,482.664999999571,4,1,0.802655569151556,0.197344430848443,1,24,2,0,1,4
12,0,438.830000000074,4,1,0.854730497460555,0.145269502539444,1,25,2,0,0,4
12,1,489.134999999776,1,0,0.478692898520071,0.521307101479928,1,1,3,1,1,1
12,0,598.375000000465,1,0,0.480728551391599,0.5192714486084,1,2,3,1,0,1
12,1,856.895000000018,1,1,0.577256589484937,0.422743410515062,0,3,3,1,0,1
12,0,594.635000000707,1,1,0.530317242906852,0.469682757093147,0,4,3,1,1,1
12,0,560.814999999944,1,1,0.57822431968211,0.421775680317889,0,5,3,1,1,1
12,0,539.775000000372,1,1,0.566282008263631,0.433717991736369,0,6,3,1,1,1
12,0,649.134999999776,1,1,0.528590120867369,0.47140987913263,0,7,3,1,1,1
12,1,622.060000000521,1,1,0.527544954689753,0.472455045310246,0,8,3,1,0,1
12,0,832.875000000465,1,0,0.476457423228993,0.523542576771006,1,9,3,1,0,1
12,0,773.744999999646,1,1,0.546207071460054,0.453792928539945,0,10,3,1,1,1
12,1,734.009999998845,1,0,0.450807535867301,0.549192464132699,1,11,3,1,1,1
12,1,757.379999999888,1,0,0.465340236439313,0.534659763560686,1,12,3,1,1,1
12,1,536.669999999459,1,0,0.453971315592937,0.546028684407062,1,13,3,1,1,1
12,1,809.460000000428,1,0,0.469137529157886,0.530862470842113,1,14,3,1,1,1
12,1,602.274999999906,1,0,0.432063692475613,0.567936307524387,1,15,3,1,1,1
12,0,733.860000000335,1,1,0.566306661946265,0.433693338053734,0,16,3,1,1,1
12,1,637.310000000055,1,0,0.49624576573377,0.50375423426623,1,17,3,1,1,1
12,0,675.785000000614,1,1,0.50756588220233,0.492434117797669,0,18,3,1,1,1
12,0,851.595000000204,1,0,0.493897228527581,0.506102771472418,1,19,3,1,0,1
12,1,781.384999999776,1,0,0.486913176861467,0.513086823138532,1,20,3,1,1,1
12,1,742.079999999608,1,0,0.465029284150838,0.534970715849161,1,21,3,1,1,1
12,0,687.424999999813,1,1,0.545793197918875,0.454206802081124,0,22,3,1,1,1
12,0,665.874999999534,1,1,0.527588819073129,0.47241118092687,0,23,3,1,1,1
12,1,817.050000000745,1,0,0.482709398359714,0.517290601640286,1,24,3,1,1,1
12,0,580.560000000521,1,1,0.556568137627272,0.443431862372727,0,25,3,1,1,1
12,1,528.510000000242,2,0,0.442890574518451,0.557109425481548,0,1,4,0,0,2
12,1,516.759999999776,2,1,0.552361938340395,0.447638061659604,1,2,4,0,1,2
12,0,462.394999999552,2,0,0.436646956054653,0.563353043945346,0,3,4,0,1,2
12,1,481.719999999739,2,1,0.535380829721176,0.464619170278823,1,4,4,0,1,2
12,0,485.450000000186,2,0,0.424240630041327,0.575759369958672,0,5,4,0,1,2
12,0,578.95500000054,2,0,0.459650526131679,0.54034947386832,0,6,4,0,1,2
12,1,606.01500000013,2,1,0.535107250331165,0.464892749668834,1,7,4,0,1,2
12,1,558.899999999906,2,1,0.563563106276638,0.436436893723361,1,8,4,0,1,2
12,0,680.825000000651,2,0,0.498935272978653,0.501064727021347,0,9,4,0,1,2
12,1,607.3600000008,2,1,0.532288640165335,0.467711359834664,1,10,4,0,1,2
12,1,672.955000000074,2,1,0.505269465860027,0.494730534139972,1,11,4,0,1,2
12,0,559.130000000353,2,0,0.450607109907872,0.549392890092127,0,12,4,0,1,2
12,0,763.305000000167,2,0,0.494977041436494,0.505022958563505,0,13,4,0,1,2
12,1,758.784999999683,2,1,0.536673478904235,0.463326521095764,1,14,4,0,1,2
12,1,531.75,2,1,0.56904572748664,0.430954272513359,1,15,4,0,1,2
12,0,556.345000000204,2,0,0.42404236455557,0.575957635444429,0,16,4,0,1,2
12,0,743.379999999888,2,0,0.476643070182714,0.523356929817285,0,17,4,0,1,2
12,1,573.189999999944,2,1,0.545152389176807,0.454847610823192,1,18,4,0,1,2
12,0,503.349999999627,2,0,0.422974502322387,0.577025497677612,0,19,4,0,1,2
12,0,690.410000000149,2,0,0.47862273344531,0.521377266554689,0,20,4,0,1,2
12,1,532.299999999813,2,1,0.575720865740128,0.424279134259872,1,21,4,0,1,2
12,1,599.285000000149,2,1,0.551184086927832,0.448815913072167,1,22,4,0,1,2
12,0,568.784999999217,2,0,0.425327648630559,0.57467235136944,0,23,4,0,1,2
12,1,897.270000000018,2,1,0.504217936982371,0.495782063017628,1,24,4,0,1,2
12,1,630.814999999478,2,1,0.567413423500565,0.432586576499434,1,25,4,0,1,2
12,1,439.924999999348,4,1,0.873993356383677,0.126006643616322,0,1,5,1,0,4
12,0,424.860000000335,4,1,0.818253557197796,0.181746442802203,0,2,5,1,1,4
12,0,445.065000000875,4,1,0.805663592990311,0.194336407009688,0,3,5,1,1,4
12,0,430.159999999683,4,1,0.833735592496074,0.166264407503925,0,4,5,1,1,4
12,1,392.904999999795,4,0,0.179966409432222,0.820033590567777,1,5,5,1,1,4
12,1,430.240000000689,4,0,0.197999440935822,0.802000559064177,1,6,5,1,1,4
12,0,391.499999999534,4,1,0.80994111395248,0.190058886047519,0,7,5,1,1,4
12,1,423.129999999888,4,0,0.139809444889752,0.860190555110248,1,8,5,1,1,4
12,0,380.939999999944,4,1,0.862343539291162,0.137656460708837,0,9,5,1,1,4
12,1,548.010000000242,4,0,0.186217900960763,0.813782099039236,1,10,5,1,1,4
12,1,421.040000000502,4,0,0.185949981494389,0.814050018505611,1,11,5,1,1,4
12,0,443.774999999906,4,1,0.805834074700949,0.19416592529905,0,12,5,1,1,4
12,1,406.864999999757,4,0,0.121669271177148,0.878330728822851,1,13,5,1,1,4
12,1,437.935000000055,4,0,0.17230149927103,0.827698500728969,1,14,5,1,1,4
12,1,384.915000000502,4,0,0.12994068852701,0.870059311472989,1,15,5,1,1,4
12,0,464.26500000013,4,1,0.82046735740915,0.179532642590849,0,16,5,1,1,4
12,1,298.939999999478,4,0,0.166762502605894,0.833237497394105,1,17,5,1,1,4
12,0,376.674999999348,4,1,0.842175677499503,0.157824322500497,0,18,5,1,1,4
12,1,313.88499999931,4,0,0.123390608785571,0.876609391214428,1,19,5,1,1,4
12,1,441.419999999925,4,0,0.192887252758189,0.80711274724181,1,20,5,1,1,4
12,0,402.825000000186,4,1,0.876635838406045,0.123364161593954,0,21,5,1,1,4
12,1,397.794999999459,4,0,0.185222328182867,0.814777671817133,1,22,5,1,1,4
12,0,397.529999999795,4,1,0.804100619874241,0.195899380125758,0,23,5,1,1,4
12,0,481.055000000167,4,1,0.813671035397307,0.186328964602692,0,24,5,1,1,4
12,0,506.584999999962,4,1,0.851090474347179,0.14890952565282,0,25,5,1,1,4
12,0,646.650000000838,3,1,0.837954444797024,0.162045555202975,1,1,6,0,0,3
12,0,410.925000000279,3,1,0.839984579776721,0.160015420223278,1,2,6,0,0,3
12,1,416.589999999851,3,0,0.160689568694797,0.839310431305202,0,3,6,0,0,3
12,1,465.344999999739,3,0,0.140156981843663,0.859843018156336,0,4,6,0,0,3
12,0,423.665000000037,3,1,0.839503648164317,0.160496351835682,1,5,6,0,0,3
12,0,426.715000000782,3,1,0.868823784695353,0.131176215304646,1,6,6,0,0,3
12,1,386.530000000726,3,0,0.134987865002374,0.865012134997625,0,7,6,0,0,3
12,1,403.634999999776,3,0,0.166100858461553,0.833899141538446,0,8,6,0,0,3
12,1,443.620000000111,3,0,0.12282326420701,0.877176735792989,0,9,6,0,0,3
12,0,362.930000000633,3,1,0.84146015279481,0.158539847205189,1,10,6,0,0,3
12,1,427.024999999906,3,0,0.14873798215101,0.851262017848989,0,11,6,0,0,3
12,0,366.550000000279,3,1,0.857691120199006,0.142308879800993,1,12,6,0,0,3
12,1,477.560000000055,3,1,0.87275910421253,0.127240895787469,1,13,6,0,1,3
12,0,419.454999999143,3,0,0.180209003124008,0.819790996875991,0,14,6,0,1,3
12,1,419.895000000018,3,0,0.152143862792746,0.847856137207253,0,15,6,0,0,3
12,0,461.839999999851,3,0,0.126851994529426,0.873148005470573,0,16,6,0,1,3
12,1,499.28000000026,3,1,0.873962103113971,0.126037896886028,1,17,6,0,1,3
12,1,479.625,3,0,0.177153695212448,0.822846304787551,0,18,6,0,0,3
12,0,735.22000000067,3,1,0.822018481352738,0.177981518647261,1,19,6,0,0,3
12,0,524.835000000428,3,0,0.161507334271947,0.838492665728052,0,20,6,0,1,3
12,1,384.645000000018,3,0,0.196820747534027,0.803179252465972,0,21,6,0,0,3
12,1,459.580000000074,3,1,0.806239160409663,0.193760839590336,1,22,6,0,1,3
12,0,422.470000000204,3,1,0.87904740433547,0.120952595664529,1,23,6,0,0,3
12,0,393.319999999832,3,1,0.835788322594162,0.164211677405837,1,24,6,0,0,3
12,1,476.870000000577,3,1,0.876573319267328,0.123426680732671,1,25,6,0,1,3
12,1,400.070000000763,3,0,0.195983457298254,0.804016542701745,1,1,7,1,1,3
12,0,483.790000000502,3,1,0.830095044586243,0.169904955413757,0,2,7,1,1,3
12,0,690.054999999702,3,0,0.120859447183356,0.879140552816643,1,3,7,1,0,3
12,0,414.270000000018,3,1,0.862003809395887,0.137996190604112,0,4,7,1,1,3
12,0,401.134999999776,3,1,0.820001540357577,0.179998459642423,0,5,7,1,1,3
12,1,395.694999999366,3,1,0.854823266604178,0.145176733395821,0,6,7,1,0,3
12,0,407.989999999757,3,1,0.87055517251265,0.129444827487349,0,7,7,1,1,3
12,1,411.239999999757,3,1,0.845087584217315,0.154912415782684,0,8,7,1,0,3
12,0,538.290000000502,3,0,0.164070443977804,0.835929556022195,1,9,7,1,0,3
12,0,377.964999999851,3,0,0.16549220609741,0.834507793902589,1,10,7,1,0,3
12,0,438.795000000391,3,0,0.148018114762057,0.851981885237942,1,11,7,1,0,3
12,0,490.370000000577,3,1,0.871684896252031,0.128315103747968,0,12,7,1,1,3
12,0,431.029999999795,3,0,0.17278708533024,0.827212914669759,1,13,7,1,0,3
12,1,381.994999999646,3,0,0.179876927810892,0.820123072189107,1,14,7,1,1,3
12,1,399.729999999981,3,0,0.158189234035757,0.841810765964242,1,15,7,1,1,3
12,1,687.93499999959,3,0,0.186962624337771,0.813037375662228,1,16,7,1,1,3
12,1,448.364999999292,3,1,0.86725102883866,0.132748971161339,0,17,7,1,0,3
12,0,426.379999999888,3,1,0.861574742960768,0.138425257039231,0,18,7,1,1,3
12,0,449.984999999403,3,0,0.173802335190827,0.826197664809172,1,19,7,1,0,3
12,1,349.354999999981,3,0,0.135368932189716,0.864631067810283,1,20,7,1,1,3
12,1,432.810000000521,3,1,0.818595205788384,0.181404794211615,0,21,7,1,0,3
12,0,476.354999999515,3,1,0.858196474931539,0.14180352506846,0,22,7,1,1,3
12,1,382.689999999478,3,1,0.81723024094841,0.182769759051589,0,23,7,1,0,3
12,0,416.785000000149,3,0,0.150004843961541,0.849995156038458,1,24,7,1,0,3
12,0,543.029999999795,3,1,0.813392558022743,0.186607441977256,0,25,7,1,1,3
12,1,583.644999999553,1,0,0.458610608453935,0.541389391546064,0,1,8,0,0,1
12,0,457.32499999972,1,1,0.531096217245707,0.468903782754292,1,2,8,0,0,1
12,0,534.865000000689,1,1,0.548633942741313,0.451366057258686,1,3,8,0,0,1
12,0,623.814999999944,1,1,0.512556541563939,0.48744345843606,1,4,8,0,0,1
12,0,547.044999999925,1,0,0.431170478470193,0.568829521529806,0,5,8,0,1,1
12,0,656.674999999348,1,1,0.568438413760187,0.431561586239813,1,6,8,0,0,1
12,0,715.769999999553,1,1,0.515846536533701,0.484153463466298,1,7,8,0,0,1
12,0,650.545000000391,1,1,0.54236536436307,0.457634635636929,1,8,8,0,0,1
12,0,565.794999999925,1,1,0.568392919898023,0.431607080101976,1,9,8,0,0,1
12,1,650.609999999404,1,0,0.43424547887675,0.565754521123249,0,10,8,0,0,1
12,0,756.544999999925,1,0,0.462905492736805,0.537094507263194,0,11,8,0,1,1
12,0,474.629999999422,1,1,0.540430995439024,0.459569004560976,1,12,8,0,0,1
12,0,558.705000000074,1,0,0.471186119761342,0.528813880238657,0,13,8,0,1,1
12,1,624.855000000447,1,0,0.473163285579933,0.526836714420066,0,14,8,0,0,1
12,0,488.424999999813,1,0,0.460982194354355,0.539017805645644,0,15,8,0,1,1
12,0,565.165000000037,1,1,0.570113466136267,0.429886533863732,1,16,8,0,0,1
12,1,623.320000000763,1,1,0.571705670582172,0.428294329417827,1,17,8,0,1,1
12,0,745.645000000018,1,1,0.536507172062277,0.463492827937722,1,18,8,0,0,1
12,1,357.259999999776,1,0,0.460331659937527,0.539668340062472,0,19,8,0,0,1
12,0,614.455000000074,1,0,0.476057865871115,0.523942134128884,0,20,8,0,1,1
12,1,507.509999999776,1,0,0.443986735294583,0.556013264705416,0,21,8,0,0,1
12,0,475.560000000055,1,0,0.4594683600193,0.540531639980699,0,22,8,0,1,1
12,1,371.145000000484,1,0,0.486922024662349,0.51307797533765,0,23,8,0,0,1
12,0,430.219999999273,1,1,0.516474233748901,0.483525766251098,1,24,8,0,0,1
12,0,773.035000000614,1,0,0.482944394796692,0.517055605203307,0,25,8,0,1,1
12,0,570.304999999236,4,1,0.811045354727886,0.188954645272114,0,1,9,1,1,4
12,0,521.039999999571,4,1,0.833731559996792,0.166268440003207,0,2,9,1,1,4
12,1,523.645000000018,4,0,0.178685502536202,0.821314497463797,1,3,9,1,1,4
12,0,397.689999999944,4,1,0.861797686442013,0.138202313557986,0,4,9,1,1,4
12,0,563.735000000335,4,1,0.868715111237374,0.131284888762625,0,5,9,1,1,4
12,0,423.025000000372,4,1,0.811497700024795,0.188502299975204,0,6,9,1,1,4
12,0,359.700000000186,4,1,0.855000269977866,0.144999730022133,0,7,9,1,1,4
12,1,400.730000000447,4,0,0.12570536161006,0.874294638389939,1,8,9,1,1,4
12,1,623.854999999981,4,0,0.160411530847284,0.839588469152715,1,9,9,1,1,4
12,1,423.040000000502,4,0,0.134423453704083,0.865576546295916,1,10,9,1,1,4
12,0,497.845000000204,4,1,0.869393324310915,0.130606675689084,0,11,9,1,1,4
12,1,435.525000000838,4,0,0.167276672399861,0.832723327600138,1,12,9,1,1,4
12,0,382.995000000111,4,1,0.801177533064406,0.198822466935593,0,13,9,1,1,4
12,1,272.729999999515,4,0,0.174586756010628,0.825413243989371,1,14,9,1,1,4
12,1,421.444999999832,4,0,0.198490489358503,0.801509510641496,1,15,9,1,1,4
12,1,427.284999999683,4,0,0.13568957715104,0.864310422848959,1,16,9,1,1,4
12,1,381.670000000856,4,0,0.188378554128628,0.811621445871371,1,17,9,1,1,4
12,1,391.760000000242,4,0,0.17539548254468,0.824604517455319,1,18,9,1,1,4
12,1,363.695000000298,4,0,0.181127449575561,0.818872550424438,1,19,9,1,1,4
12,0,507.910000000149,4,1,0.836732445036086,0.163267554963913,0,20,9,1,1,4
12,0,488.01500000013,4,1,0.814410167636265,0.185589832363735,0,21,9,1,1,4
12,0,462.939999999012,4,1,0.872576500909845,0.127423499090154,0,22,9,1,1,4
12,0,382.060000000055,4,1,0.873704255276156,0.126295744723844,0,23,9,1,1,4
12,0,479.445000000298,4,1,0.816689738843546,0.183310261156453,0,24,9,1,1,4
12,1,348.680000000167,4,0,0.127679841746795,0.872320158253204,1,25,9,1,1,4
12,1,781.774999999441,2,0,0.445846678136022,0.554153321863977,0,1,10,0,0,2
12,1,483.085000000894,2,0,0.432297277492147,0.567702722507853,0,2,10,0,0,2
12,0,614.709999999962,2,1,0.519453452068269,0.48054654793173,1,3,10,0,0,2
12,1,579.314999999944,2,1,0.577159308789015,0.422840691210984,1,4,10,0,1,2
12,1,643.460000000428,2,1,0.538456856744467,0.461543143255532,1,5,10,0,1,2
12,0,502.07499999972,2,0,0.453986557764976,0.546013442235023,0,6,10,0,1,2
12,1,441.205000000074,2,0,0.492612428649154,0.507387571350845,0,7,10,0,0,2
12,0,546.035000000149,2,0,0.465506211109915,0.534493788890084,0,8,10,0,1,2
12,1,631.044999999925,2,1,0.545112485051895,0.454887514948104,1,9,10,0,1,2
12,0,723.004999999888,2,1,0.509479733690291,0.490520266309708,1,10,10,0,0,2
12,0,649.115000000223,2,1,0.515102870403486,0.484897129596513,1,11,10,0,0,2
12,1,579.060000000055,2,0,0.499949911305362,0.500050088694637,0,12,10,0,0,2
12,0,519.454999999608,2,0,0.43366913692081,0.566330863079189,0,13,10,0,1,2
12,1,491.739999999757,2,1,0.575657407285443,0.424342592714556,1,14,10,0,1,2
12,1,494.325000000651,2,1,0.550346903530162,0.449653096469837,1,15,10,0,1,2
12,1,642.489999999292,2,1,0.511555580794356,0.488444419205643,1,16,10,0,1,2
12,0,497.004999999888,2,0,0.429119087188794,0.570880912811205,0,17,10,0,1,2
12,0,612.970000000204,2,0,0.450038951404273,0.549961048595726,0,18,10,0,1,2
12,0,515.580000000074,2,0,0.421682324123634,0.578317675876366,0,19,10,0,1,2
12,0,550.769999999553,2,0,0.439835008160028,0.560164991839971,0,20,10,0,1,2
12,1,466.324999999254,2,1,0.574829910599843,0.425170089400156,1,21,10,0,1,2
12,1,500.430000000167,2,1,0.572831594683768,0.427168405316231,1,22,10,0,1,2
12,1,639.664999999571,2,1,0.506199894759044,0.493800105240955,1,23,10,0,1,2
12,0,862.435000000055,2,0,0.486763259749475,0.513236740250525,0,24,10,0,1,2
12,1,531.040000000968,2,1,0.571754838374827,0.428245161625172,1,25,10,0,1,2
12,1,587.334999999031,4,1,0.802166122819496,0.197833877180503,1,1,11,0,1,4
12,1,426.334999999962,4,1,0.85592685831061,0.144073141689389,1,2,11,0,1,4
12,0,451.864999999757,4,0,0.138917346319718,0.861082653680281,0,3,11,0,1,4
12,1,444.605000000447,4,1,0.852133485402132,0.147866514597867,1,4,11,0,1,4
12,1,369.475000000558,4,1,0.879157499339094,0.120842500660905,1,5,11,0,1,4
12,0,412.399999999906,4,0,0.1581098092507,0.841890190749299,0,6,11,0,1,4
12,1,370.899999999906,4,1,0.851671620678313,0.148328379321686,1,7,11,0,1,4
12,0,441.700000000186,4,0,0.126560046983573,0.873439953016426,0,8,11,0,1,4
12,0,400.285000000614,4,0,0.188981308233013,0.811018691766986,0,9,11,0,1,4
12,1,466.545000000391,4,1,0.803082397044343,0.196917602955656,1,10,11,0,1,4
12,1,476.770000000484,4,1,0.827365832438532,0.172634167561468,1,11,11,0,1,4
12,0,430.854999999981,4,0,0.157819415602505,0.842180584397494,0,12,11,0,1,4
12,1,468.925000000279,4,1,0.866236934564495,0.133763065435504,1,13,11,0,1,4
12,0,419.485000000335,4,0,0.157762802323557,0.842237197676442,0,14,11,0,1,4
12,0,525.450000000186,4,0,0.177305403808533,0.822694596191466,0,15,11,0,1,4
12,0,400.400000000372,4,0,0.168204406125981,0.831795593874018,0,16,11,0,1,4
12,0,473.865000000223,4,0,0.182126549926996,0.817873450073003,0,17,11,0,1,4
12,1,412.355000000447,4,1,0.809401676751864,0.190598323248135,1,18,11,0,1,4
12,1,441.58000000054,4,1,0.861778136395587,0.138221863604412,1,19,11,0,1,4
12,1,363.875,4,1,0.865081758942676,0.134918241057323,1,20,11,0,1,4
12,1,351.850000000093,4,1,0.871266612485022,0.128733387514977,1,21,11,0,1,4
12,0,454.564999999944,4,0,0.123406469772153,0.876593530227846,0,22,11,0,1,4
12,0,440.569999999366,4,0,0.170889218308008,0.829110781691991,0,23,11,0,1,4
12,0,400.079999999143,4,0,0.140169896211827,0.859830103788172,0,24,11,0,1,4
12,0,440.610000000335,4,0,0.172887890764821,0.827112109235178,0,25,11,0,1,4
12,1,489.770000000018,2,1,0.50846540191062,0.491534598089379,0,1,12,1,0,2
12,0,619.959999999962,2,0,0.492801636198852,0.507198363801147,1,2,12,1,0,2
12,0,530.459999999962,2,1,0.513921393134785,0.486078606865214,0,3,12,1,1,2
12,0,518.780000000726,2,1,0.547737697240902,0.452262302759097,0,4,12,1,1,2
12,0,408.220000000204,2,0,0.45977254670276,0.540227453297239,1,5,12,1,0,2
12,0,515.789999999571,2,1,0.524392868635734,0.475607131364265,0,6,12,1,1,2
12,1,631.035000000149,2,0,0.481359815190502,0.518640184809497,1,7,12,1,1,2
12,1,609.454999999608,2,0,0.453910693184689,0.54608930681531,1,8,12,1,1,2
12,1,632.754999999422,2,0,0.455916708491998,0.544083291508001,1,9,12,1,1,2
12,1,759.004999999888,2,0,0.456232094079614,0.543767905920385,1,10,12,1,1,2
12,0,610.350000000093,2,1,0.503609371579286,0.496390628420713,0,11,12,1,1,2
12,0,564.454999999608,2,1,0.556586158776011,0.443413841223988,0,12,12,1,1,2
12,1,615.089999999851,2,0,0.43800086524421,0.561999134755789,1,13,12,1,1,2
12,0,483.354999999515,2,1,0.546940527958326,0.453059472041673,0,14,12,1,1,2
12,0,576.615000000223,2,1,0.542789660962733,0.457210339037266,0,15,12,1,1,2
12,0,547.734999999404,2,1,0.550254161284664,0.449745838715335,0,16,12,1,1,2
12,1,449.345000000204,2,0,0.427596198933263,0.572403801066736,1,17,12,1,1,2
12,0,443.395000000018,2,1,0.566326374285886,0.433673625714114,0,18,12,1,1,2
12,1,483.024999999906,2,0,0.457860209544768,0.542139790455231,1,19,12,1,1,2
12,0,453.09500000067,2,1,0.533650071871225,0.466349928128774,0,20,12,1,1,2
12,1,477.020000000484,2,0,0.457858013349536,0.542141986650463,1,21,12,1,1,2
12,1,503.745000000111,2,0,0.442368834805665,0.557631165194335,1,22,12,1,1,2
12,1,469.190000000409,2,0,0.420422813889384,0.579577186110615,1,23,12,1,1,2
12,1,741.525000000372,2,0,0.485205064654735,0.514794935345264,1,24,12,1,1,2
12,1,678.629999999422,2,1,0.508796823540988,0.491203176459011,0,25,12,1,0,2
12,1,472.794999999459,3,0,0.184817524146824,0.815182475853175,0,1,13,0,0,3
12,0,435.905000000726,3,0,0.159338663057853,0.840661336942147,0,2,13,0,1,3
12,0,455.649999999906,3,1,0.875547382953889,0.12445261704611,1,3,13,0,0,3
12,1,458.030000000726,3,1,0.816676842924168,0.183323157075831,1,4,13,0,1,3
12,1,413.905000000726,3,0,0.145633293040359,0.85436670695964,0,5,13,0,0,3
12,1,462.814999999944,3,1,0.84515979736486,0.154840202635139,1,6,13,0,1,3
12,1,620.78000000026,3,0,0.177346977778784,0.822653022221215,0,7,13,0,0,3
12,1,332.365000000223,3,0,0.165230958154045,0.834769041845954,0,8,13,0,0,3
12,0,663.144999999553,3,1,0.847827947072675,0.152172052927324,1,9,13,0,0,3
12,1,484.819999999832,3,1,0.877734069267489,0.12226593073251,1,10,13,0,1,3
12,1,450.354999999981,3,1,0.81570573051015,0.184294269489849,1,11,13,0,1,3
12,0,457.754999999422,3,0,0.158905549720149,0.84109445027985,0,12,13,0,1,3
12,0,459.344999999273,3,1,0.871762692169081,0.128237307830918,1,13,13,0,0,3
12,1,420.44999999972,3,1,0.817600542364891,0.182399457635108,1,14,13,0,1,3
12,0,506.954999999608,3,1,0.829073996580068,0.170926003419931,1,15,13,0,0,3
12,0,638.044999999925,3,1,0.854644105863912,0.145355894136087,1,16,13,0,0,3
12,0,615.709999999962,3,0,0.187612201405942,0.812387798594057,0,17,13,0,1,3
12,1,463.570000000298,3,0,0.121392282953481,0.878607717046518,0,18,13,0,0,3
12,0,680.260000000242,3,1,0.821343484833432,0.178656515166567,1,19,13,0,0,3
12,1,346.86999999918,3,0,0.127692168677071,0.872307831322928,0,20,13,0,0,3
12,1,706.610000000335,3,1,0.877073713930312,0.122926286069687,1,21,13,0,1,3
12,1,433.520000000484,3,1,0.803845766873801,0.196154233126198,1,22,13,0,1,3
12,1,670.469999999739,3,0,0.142166516632137,0.857833483367862,0,23,13,0,0,3
12,0,647.955000000074,3,0,0.134556383051103,0.865443616948896,0,24,13,0,1,3
12,1,350.159999999683,3,0,0.183899656683345,0.816100343316654,0,25,13,0,0,3
12,1,588.394999999553,1,0,0.490757809307438,0.509242190692561,1,1,14,1,1,1
12,0,561.200000000186,1,1,0.539107424380605,0.460892575619394,0,2,14,1,1,1
12,1,636.750000000931,1,0,0.424335513807587,0.575664486192412,1,3,14,1,1,1
12,0,485.850000000093,1,1,0.577981601113254,0.422018398886745,0,4,14,1,1,1
12,0,613.919999999925,1,1,0.544874873004758,0.455125126995241,0,5,14,1,1,1
12,1,706.574999999254,1,0,0.496917948729959,0.50308205127004,1,6,14,1,1,1
12,1,688.605000000447,1,0,0.452234517284219,0.54776548271578,1,7,14,1,1,1
12,0,538.019999999553,1,1,0.559795677004948,0.440204322995051,0,8,14,1,1,1
12,1,475.964999999385,1,0,0.440183626149098,0.559816373850902,1,9,14,1,1,1
12,0,590.170000000391,1,1,0.539304204062872,0.460695795937127,0,10,14,1,1,1
12,0,666.999999999534,1,1,0.525697044708571,0.474302955291428,0,11,14,1,1,1
12,0,561.799999999813,1,1,0.541042505974632,0.458957494025367,0,12,14,1,1,1
12,1,453.719999999739,1,0,0.473385071595024,0.526614928404975,1,13,14,1,1,1
12,1,505.634999999776,1,0,0.470109401116279,0.52989059888372,1,14,14,1,1,1
12,1,522.489999999292,1,0,0.436868441084838,0.563131558915161,1,15,14,1,1,1
12,1,477.299999999813,1,0,0.432595794123633,0.567404205876366,1,16,14,1,1,1
12,0,502.915000000037,1,1,0.567020986518364,0.432979013481635,0,17,14,1,1,1
12,1,553.505000000819,1,0,0.46021621221801,0.539783787781989,1,18,14,1,1,1
12,1,522.104999999981,1,0,0.434320397193936,0.565679602806063,1,19,14,1,1,1
12,1,477.549999999348,1,0,0.450081947338938,0.549918052661061,1,20,14,1,1,1
12,0,754.669999999459,1,1,0.578571183345885,0.421428816654115,0,21,14,1,1,1
12,0,744.090000000316,1,1,0.519079462518426,0.480920537481573,0,22,14,1,1,1
12,0,661.119999999646,1,1,0.55115015409162,0.448849845908379,0,23,14,1,1,1
12,0,881.229999999981,1,0,0.496145461158977,0.503854538841022,1,24,14,1,0,1
12,0,742.270000000018,1,1,0.529836705113701,0.470163294886298,0,25,14,1,1,1
12,1,520.82499999972,3,0,0.149313832835144,0.850686167164855,1,1,15,1,1,3
12,0,380.200000000651,3,0,0.193707922038322,0.806292077961677,1,2,15,1,0,3
12,0,429.294999999925,3,0,0.137361559928203,0.862638440071796,1,3,15,1,0,3
12,0,492.775000000838,3,1,0.835210615880782,0.164789384119217,0,4,15,1,1,3
12,0,750.259999999776,3,0,0.18262512740748,0.817374872592519,1,5,15,1,0,3
12,0,399.739999999757,3,1,0.818757987201224,0.181242012798775,0,6,15,1,1,3
12,0,454.490000000223,3,1,0.859240763557968,0.140759236442031,0,7,15,1,1,3
12,0,404.629999999888,3,0,0.16283261330867,0.837167386691329,1,8,15,1,0,3
12,1,478.230000000447,3,0,0.138827963200996,0.861172036799003,1,9,15,1,1,3
12,0,609.894999999553,3,1,0.862312530960417,0.137687469039582,0,10,15,1,1,3
12,0,509.470000000204,3,1,0.869312421328715,0.130687578671284,0,11,15,1,1,3
12,0,408.439999999944,3,1,0.871208314652178,0.128791685347821,0,12,15,1,1,3
12,1,462.229999999981,3,0,0.167959391154754,0.832040608845245,1,13,15,1,1,3
12,1,558.580000000074,3,0,0.130403302756578,0.869596697243421,1,14,15,1,1,3
12,1,426.074999999254,3,0,0.1366267447556,0.863373255244399,1,15,15,1,1,3
12,0,435.795000000391,3,1,0.876201647805088,0.123798352194911,0,16,15,1,1,3
12,0,415.475000000093,3,0,0.167579854677575,0.832420145322424,1,17,15,1,0,3
12,0,490.540000000037,3,1,0.811913865116499,0.1880861348835,0,18,15,1,1,3
12,0,382.210000000428,3,1,0.865992092395078,0.134007907604921,0,19,15,1,1,3
12,1,451.49499999918,3,0,0.157234845239125,0.842765154760874,1,20,15,1,1,3
12,1,463.504999999422,3,1,0.803997866241433,0.196002133758566,0,21,15,1,0,3
12,1,465.430000000167,3,1,0.864281937717202,0.135718062282797,0,22,15,1,0,3
12,1,561.095000000204,3,0,0.181141271698034,0.818858728301965,1,23,15,1,1,3
12,1,454.299999999348,3,0,0.166813169563021,0.833186830436978,1,24,15,1,1,3
12,0,442.635000000242,3,1,0.833699705516528,0.166300294483471,0,25,15,1,1,3
12,1,760.830000000074,1,1,0.501868206583073,0.498131793416926,1,1,16,0,1,1
12,1,659.185000000521,1,0,0.447234745263578,0.552765254736421,0,2,16,0,0,1
12,0,649.75,1,0,0.451556493869269,0.54844350613073,0,3,16,0,1,1
12,1,738.875,1,1,0.549143044300764,0.450856955699235,1,4,16,0,1,1
12,1,708.935000000055,1,1,0.541303076653553,0.458696923346446,1,5,16,0,1,1
12,1,678.720000000204,1,1,0.547536644989818,0.452463355010181,1,6,16,0,1,1
12,0,564.01500000013,1,0,0.460132604701476,0.539867395298524,0,7,16,0,1,1
12,1,634.440000000875,1,1,0.509529323803256,0.490470676196744,1,8,16,0,1,1
12,0,542.884999999776,1,0,0.451281232611959,0.54871876738804,0,9,16,0,1,1
12,1,510.229999999515,1,0,0.490489889232934,0.509510110767065,0,10,16,0,0,1
12,0,474.009999999776,1,0,0.45223099599289,0.547769004007109,0,11,16,0,1,1
12,1,553.300000000279,1,1,0.502966428391616,0.497033571608384,1,12,16,0,1,1
12,1,579.150000000372,1,1,0.531874981359935,0.468125018640064,1,13,16,0,1,1
12,0,744.709999999962,1,0,0.463277138732002,0.536722861267997,0,14,16,0,1,1
12,0,505.675000000279,1,0,0.452442860913303,0.547557139086696,0,15,16,0,1,1
12,0,599.30999999959,1,0,0.451378388768759,0.54862161123124,0,16,16,0,1,1
12,1,613.310000000521,1,0,0.490894898228145,0.509105101771854,0,17,16,0,0,1
12,1,581.794999999925,1,1,0.51751826996835,0.482481730031649,1,18,16,0,1,1
12,0,526.209999999962,1,0,0.433659591130915,0.566340408869084,0,19,16,0,1,1
12,1,709.584999999497,1,1,0.512652370772522,0.487347629227477,1,20,16,0,1,1
12,1,496.415000000502,1,1,0.571224478488172,0.428775521511827,1,21,16,0,1,1
12,1,589.800000000745,1,1,0.523651709564853,0.476348290435146,1,22,16,0,1,1
12,1,505.549999999813,1,1,0.50246289907571,0.497537100924289,1,23,16,0,1,1
12,0,632.36999999918,1,0,0.461507661663612,0.538492338336387,0,24,16,0,1,1
12,0,684.339999999851,1,0,0.492083438843261,0.507916561156738,0,25,16,0,1,1
13,1,493.680000014137,2,1,0.515011378646067,0.484988621353932,1,1,1,0,1,2
13,1,475.904999999329,2,1,0.566037396008735,0.433962603991264,1,2,1,0,1,2
13,1,612.06499999389,2,1,0.541383193999924,0.458616806000075,1,3,1,0,1,2
13,0,751.859999960288,2,0,0.481394115213032,0.518605884786967,0,4,1,0,1,2
13,0,674.074999988079,2,1,0.536444704104899,0.4635552958951,1,5,1,0,0,2
13,1,545.979999995324,2,1,0.560365833705641,0.439634166294358,1,6,1,0,1,2
13,0,783.094999962486,2,0,0.473095780475483,0.526904219524516,0,7,1,0,1,2
13,0,719.519999984186,2,0,0.498847270777366,0.501152729222633,0,8,1,0,1,2
13,0,607.149999996181,2,0,0.421981652525834,0.578018347474165,0,9,1,0,1,2
13,0,708.00500002224,2,1,0.521635091272762,0.478364908727237,1,10,1,0,0,2
13,0,692.110000003594,2,1,0.541743819973272,0.458256180026727,1,11,1,0,0,2
13,1,546.360000036656,2,1,0.559477944336219,0.44052205566378,1,12,1,0,1,2
13,0,872.069999983068,2,1,0.505125343041499,0.4948746569585,1,13,1,0,0,2
13,0,532.850000017788,2,0,0.431896291082355,0.568103708917644,0,14,1,0,1,2
13,0,578.440000012051,2,0,0.467464624702225,0.532535375297774,0,15,1,0,1,2
13,0,942.08999996772,2,0,0.468414241489789,0.53158575851021,0,16,1,0,1,2
13,0,729.58500002278,2,0,0.464765763368912,0.535234236631087,0,17,1,0,1,2
13,0,598.854999989271,2,0,0.480871570981848,0.519128429018151,0,18,1,0,1,2
13,0,458.270000002812,2,0,0.431388372554299,0.5686116274457,0,19,1,0,1,2
13,0,468.02500000922,2,1,0.506278924445999,0.493721075554,1,20,1,0,0,2
13,0,489.375000004656,2,0,0.426360150733498,0.573639849266501,0,21,1,0,1,2
13,0,630.074999993667,2,0,0.469861770859469,0.53013822914053,0,22,1,0,1,2
13,0,524.615000002086,2,0,0.44558112003036,0.55441887996964,0,23,1,0,1,2
13,1,543.520000006537,2,1,0.562300396303011,0.437699603696989,1,24,1,0,1,2
13,1,531.010000035166,2,1,0.545595865525552,0.454404134474447,1,25,1,0,1,2
13,0,467.174999997951,2,1,0.546633390743626,0.453366609256373,0,1,2,1,1,2
13,0,456.240000028628,2,1,0.575047342733516,0.424952657266483,0,2,2,1,1,2
13,0,505.47999999253,2,1,0.513709376408124,0.486290623591875,0,3,2,1,1,2
13,1,653.010000009089,2,0,0.487350368965044,0.512649631034955,1,4,2,1,1,2
13,0,456.865000014659,2,1,0.508413399708212,0.491586600291787,0,5,2,1,1,2
13,0,537.215000018477,2,1,0.558762821606912,0.441237178393087,0,6,2,1,1,2
13,1,572.96000001952,2,0,0.462486563960908,0.537513436039091,1,7,2,1,1,2
13,1,472.284999967087,2,0,0.459833395650189,0.54016660434981,1,8,2,1,1,2
13,0,490.459999942686,2,1,0.556539118753261,0.443460881246738,0,9,2,1,1,2
13,1,450.895000016316,2,0,0.45330279950207,0.546697200497929,1,10,2,1,1,2
13,1,509.26999998046,2,0,0.447062507007001,0.552937492992998,1,11,2,1,1,2
13,0,556.265000021085,2,1,0.524809669979762,0.475190330020237,0,12,2,1,1,2
13,0,607.309999992139,2,1,0.519498263880592,0.480501736119407,0,13,2,1,1,2
13,0,789.999999979045,2,0,0.49911841914714,0.500881580852859,1,14,2,1,0,2
13,0,508.619999978691,2,1,0.575017692568823,0.424982307431176,0,15,2,1,1,2
13,1,706.460000015795,2,0,0.472946773927874,0.527053226072125,1,16,2,1,1,2
13,1,531.659999978728,2,0,0.488752885065323,0.511247114934676,1,17,2,1,1,2
13,0,625.52499998128,2,1,0.541441173030036,0.458558826969963,0,18,2,1,1,2
13,0,544.809999992139,2,1,0.541562098129835,0.458437901870165,0,19,2,1,1,2
13,1,568.740000016987,2,0,0.490360821532761,0.509639178467238,1,20,2,1,1,2
13,1,606.710000021848,2,0,0.496604543364736,0.503395456635263,1,21,2,1,1,2
13,1,412.624999997206,2,0,0.496033400568904,0.503966599431095,1,22,2,1,1,2
13,0,521.710000000894,2,1,0.579801072820839,0.42019892717916,0,23,2,1,1,2
13,0,487.915000005159,2,0,0.442799332324461,0.557200667675539,1,24,2,1,0,2
13,1,425.879999995231,2,0,0.459872358152503,0.540127641847496,1,25,2,1,1,2
13,1,388.269999995827,4,0,0.140371359086012,0.859628640913987,1,1,3,1,1,4
13,1,381.37999997707,4,0,0.155135349651518,0.844864650348481,1,2,3,1,1,4
13,1,322.849999996833,4,0,0.18023042626243,0.819769573737569,1,3,3,1,1,4
13,0,405.420000024605,4,1,0.851269408049646,0.148730591950353,0,4,3,1,1,4
13,1,380.95500000054,4,0,0.137136328905618,0.862863671094381,1,5,3,1,1,4
13,1,389.70999995945,4,0,0.168616772044247,0.831383227955752,1,6,3,1,1,4
13,1,356.290000025182,4,0,0.148637609142963,0.851362390857036,1,7,3,1,1,4
13,0,479.415000008884,4,1,0.866796589700765,0.133203410299235,0,8,3,1,1,4
13,0,406.859999988228,4,1,0.877007438800487,0.122992561199512,0,9,3,1,1,4
13,1,279.255000001285,4,0,0.123066719655553,0.876933280344447,1,10,3,1,1,4
13,1,390.025000029709,4,0,0.153981490843272,0.846018509156727,1,11,3,1,1,4
13,0,436.389999988023,4,1,0.821170674816651,0.178829325183348,0,12,3,1,1,4
13,0,419.894999999087,4,1,0.878764465564368,0.121235534435631,0,13,3,1,1,4
13,0,433.320000011008,4,1,0.834342077460827,0.165657922539172,0,14,3,1,1,4
13,1,472.944999986793,4,0,0.137405859468922,0.862594140531078,1,15,3,1,1,4
13,0,385.505000012926,4,1,0.834985458464924,0.165014541535075,0,16,3,1,1,4
13,0,454.47499997681,4,1,0.829699344907339,0.17030065509266,0,17,3,1,1,4
13,0,417.859999986831,4,1,0.856529221687382,0.143470778312617,0,18,3,1,1,4
13,0,458.884999970905,4,1,0.878138676356507,0.121861323643492,0,19,3,1,1,4
13,0,438.945000001695,4,1,0.846839750820755,0.153160249179244,0,20,3,1,1,4
13,1,392.070000001695,4,0,0.177363699394088,0.822636300605911,1,21,3,1,1,4
13,1,413.520000001881,4,0,0.16638815604186,0.833611843958139,1,22,3,1,1,4
13,1,368.420000013429,4,0,0.169769227379524,0.830230772620475,1,23,3,1,1,4
13,0,490.489999996498,4,1,0.84048982183021,0.159510178169789,0,24,3,1,1,4
13,1,372.939999972004,4,0,0.154203943745288,0.845796056254711,1,25,3,1,1,4
13,1,755.535000003874,1,1,0.570499065491693,0.429500934508306,0,1,4,1,0,1
13,0,567.275000037625,1,1,0.528334498410256,0.471665501589743,0,2,4,1,1,1
13,0,737.545000039972,1,0,0.483176607530523,0.516823392469476,1,3,4,1,0,1
13,1,664.229999994859,1,1,0.50696666265991,0.493033337340089,0,4,4,1,0,1
13,1,560.345000005327,1,0,0.471111435887762,0.528888564112238,1,5,4,1,1,1
13,1,445.949999964796,1,0,0.438859506011433,0.561140493988566,1,6,4,1,1,1
13,0,550.949999946169,1,1,0.523632152836209,0.47636784716379,0,7,4,1,1,1
13,1,419.129999994765,1,0,0.423692860457783,0.576307139542216,1,8,4,1,1,1
13,1,468.434999987948,1,0,0.446014586219282,0.553985413780717,1,9,4,1,1,1
13,0,531.220000004395,1,1,0.557261628501948,0.442738371498051,0,10,4,1,1,1
13,1,620.590000005904,1,1,0.511287000183603,0.488712999816396,0,11,4,1,0,1
13,0,414.975000021513,1,1,0.573744692535997,0.426255307464002,0,12,4,1,1,1
13,0,510.975000041071,1,0,0.458640362779207,0.541359637220792,1,13,4,1,0,1
13,1,483.160000003408,1,0,0.49201121770578,0.507988782294219,1,14,4,1,1,1
13,1,528.219999978318,1,1,0.511735102842295,0.488264897157704,0,15,4,1,0,1
13,0,468.129999993834,1,1,0.542613385161158,0.457386614838841,0,16,4,1,1,1
13,0,448.23500001803,1,1,0.569441704299455,0.430558295700544,0,17,4,1,1,1
13,1,517.664999992121,1,0,0.45892410438112,0.54107589561888,1,18,4,1,1,1
13,1,771.385000029113,1,1,0.502546106972377,0.497453893027622,0,19,4,1,0,1
13,1,498.674999980721,1,0,0.470356672613334,0.529643327386665,1,20,4,1,1,1
13,1,525.34499997273,1,0,0.460832893091128,0.539167106908871,1,21,4,1,1,1
13,1,500.039999955333,1,0,0.470606968733653,0.529393031266346,1,22,4,1,1,1
13,0,502.205000026151,1,1,0.54970540178725,0.45029459821275,0,23,4,1,1,1
13,1,443.099999974947,1,0,0.47133138279389,0.52866861720611,1,24,4,1,1,1
13,1,541.359999973792,1,0,0.478005585775564,0.521994414224435,1,25,4,1,1,1
13,1,373.285000037867,3,0,0.16041135009763,0.839588649902369,1,1,5,1,1,3
13,0,326.880000007804,3,1,0.823046358074844,0.176953641925155,0,2,5,1,1,3
13,0,451.440000033471,3,1,0.8044220235492,0.195577976450799,0,3,5,1,1,3
13,0,359.439999971073,3,1,0.805808680842063,0.194191319157936,0,4,5,1,1,3
13,0,397.274999995715,3,1,0.874654426065401,0.125345573934598,0,5,5,1,1,3
13,0,397.055000008549,3,1,0.828658100656224,0.171341899343775,0,6,5,1,1,3
13,1,438.885000010486,3,0,0.139023261426455,0.860976738573544,1,7,5,1,1,3
13,1,577.044999983627,3,1,0.832087526387371,0.167912473612628,0,8,5,1,0,3
13,0,302.620000031311,3,1,0.853147849455033,0.146852150544966,0,9,5,1,1,3
13,0,358.944999985396,3,1,0.847044251941613,0.152955748058386,0,10,5,1,1,3
13,1,327.389999991282,3,0,0.125573589105323,0.874426410894676,1,11,5,1,1,3
13,1,315.415000019129,3,0,0.160751543239556,0.839248456760443,1,12,5,1,1,3
13,1,514.590000035241,3,0,0.189268944788945,0.810731055211054,1,13,5,1,1,3
13,1,411.635000025853,3,0,0.191317269652136,0.808682730347863,1,14,5,1,1,3
13,0,771.58000000054,3,1,0.818406839500091,0.181593160499908,0,15,5,1,1,3
13,1,400.105000007897,3,0,0.164488776346644,0.835511223653355,1,16,5,1,1,3
13,1,339.259999978821,3,0,0.156224086557236,0.843775913442763,1,17,5,1,1,3
13,1,491.625000024214,3,0,0.175455964086873,0.824544035913126,1,18,5,1,1,3
13,1,380.509999988134,3,0,0.129733351384446,0.870266648615553,1,19,5,1,1,3
13,1,361.325000005308,3,0,0.174618568442505,0.825381431557494,1,20,5,1,1,3
13,0,508.629999996628,3,1,0.837760990009348,0.162239009990651,0,21,5,1,1,3
13,0,446.430000010877,3,1,0.859408201278581,0.140591798721418,0,22,5,1,1,3
13,1,439.899999997578,3,0,0.193518630770983,0.806481369229016,1,23,5,1,1,3
13,0,586.439999984577,3,1,0.845389793083049,0.15461020691695,0,24,5,1,1,3
13,1,472.285000025294,3,0,0.18206920373749,0.817930796262509,1,25,5,1,1,3
13,1,262.310000020079,3,0,0.171941566730125,0.828058433269874,0,1,6,0,0,3
13,1,388.585000007879,3,1,0.853971550916828,0.146028449083171,1,2,6,0,1,3
13,0,384.329999971669,3,0,0.143938448656346,0.856061551343653,0,3,6,0,1,3
13,1,352.064999984577,3,1,0.873645697069278,0.126354302930722,1,4,6,0,1,3
13,1,425.040000001899,3,1,0.825219812077219,0.17478018792278,1,5,6,0,1,3
13,1,341.305000009015,3,1,0.846613256268805,0.153386743731194,1,6,6,0,1,3
13,0,571.320000046398,3,0,0.140978360427051,0.859021639572948,0,7,6,0,1,3
13,0,499.490000016521,3,0,0.190878221570741,0.809121778429258,0,8,6,0,1,3
13,0,517.975000024307,3,0,0.130980782613212,0.869019217386787,0,9,6,0,1,3
13,0,490.3049999848,3,0,0.141336007329237,0.858663992670762,0,10,6,0,1,3
13,0,476.59500001464,3,0,0.14564595421603,0.854354045783969,0,11,6,0,1,3
13,1,465.489999973215,3,1,0.870923995548471,0.129076004451528,1,12,6,0,1,3
13,1,316.299999947659,3,1,0.852872696885141,0.147127303114858,1,13,6,0,1,3
13,1,644.990000000689,3,1,0.813416456027676,0.186583543972323,1,14,6,0,1,3
13,1,476.080000051297,3,1,0.8116114583227,0.188388541677299,1,15,6,0,1,3
13,1,928.975000046193,3,1,0.839659828587834,0.160340171412165,1,16,6,0,1,3
13,0,492.680000024847,3,0,0.141726828749522,0.858273171250477,0,17,6,0,1,3
13,1,107.405000017024,3,0,0.154904577139574,0.845095422860425,0,18,6,0,0,3
13,1,966.169999970588,3,1,0.876365923946754,0.123634076053246,1,19,6,0,1,3
13,1,622.759999998379,3,1,0.840545226123909,0.15945477387609,1,20,6,0,1,3
13,0,392.954999988433,3,0,0.179420755347973,0.820579244652026,0,21,6,0,1,3
13,1,832.944999972824,3,1,0.87776659754129,0.122233402458709,1,22,6,0,1,3
13,0,404.909999982919,3,0,0.156517543418648,0.843482456581351,0,23,6,0,1,3
13,1,360.79000000609,3,NaN,0.808182584094026,0.191817415905973,NaN,24,6,0,0,3
13,0,391.684999980498,3,NaN,0.158110735380822,0.841889264619177,NaN,25,6,0,0,3
13,1,349.575000000186,4,0,0.19099133740753,0.809008662592469,0,1,7,0,0,4
13,0,404.320000030566,4,1,0.863928443409648,0.136071556590351,1,2,7,0,0,4
13,1,334.535000030882,4,1,0.81944524830319,0.180554751696809,1,3,7,0,1,4
13,0,399.459999985992,4,0,0.184263327086718,0.815736672913281,0,4,7,0,1,4
13,1,364.750000007916,4,0,0.148395964251909,0.851604035748091,0,5,7,0,0,4
13,0,484.370000020135,4,0,0.142557371830303,0.857442628169696,0,6,7,0,1,4
13,1,466.445000027306,4,1,0.818664476025587,0.181335523974412,1,7,7,0,1,4
13,0,371.800000022631,4,0,0.139195502362528,0.860804497637471,0,8,7,0,1,4
13,0,394.710000022314,4,0,0.159299998100546,0.840700001899453,0,9,7,0,1,4
13,1,415.570000011939,4,1,0.818354534881993,0.181645465118006,1,10,7,0,1,4
13,0,440.149999980349,4,0,0.173301181120181,0.826698818879818,0,11,7,0,1,4
13,0,415.919999999459,4,0,0.125434842157434,0.874565157842565,0,12,7,0,1,4
13,1,419.240000017453,4,1,0.831652401638795,0.168347598361204,1,13,7,0,1,4
13,1,422.655000002123,4,1,0.81980380339357,0.180196196606429,1,14,7,0,1,4
13,1,423.294999985955,4,1,0.849792630868151,0.150207369131848,1,15,7,0,1,4
13,1,414.410000026691,4,1,0.870006048681387,0.129993951318612,1,16,7,0,1,4
13,0,472.769999993033,4,0,0.123064274438159,0.87693572556184,0,17,7,0,1,4
13,0,430.359999998472,4,0,0.120256671052267,0.879743328947732,0,18,7,0,1,4
13,0,507.580000034067,4,0,0.148799384430232,0.851200615569767,0,19,7,0,1,4
13,1,370.249999978113,4,1,0.876628891594661,0.123371108405338,1,20,7,0,1,4
13,1,361.934999993536,4,1,0.872231543594148,0.127768456405851,1,21,7,0,1,4
13,1,409.775000007357,4,1,0.803764258552374,0.196235741447626,1,22,7,0,1,4
13,1,428.944999992381,4,1,0.843929065754273,0.156070934245726,1,23,7,0,1,4
13,0,504.350000002887,4,0,0.181914675486313,0.818085324513687,0,24,7,0,1,4
13,1,386.319999990519,4,NaN,0.803266054043151,0.196733945956849,NaN,25,7,0,0,4
13,0,715.83499998087,1,1,0.512770325067526,0.487229674932473,1,1,8,0,0,1
13,1,674.144999997224,1,0,0.421736886769586,0.578263113230413,0,2,8,0,0,1
13,1,647.189999988768,1,0,0.431150255761743,0.568849744238257,0,3,8,0,0,1
13,1,589.460000046528,1,1,0.571230453601346,0.428769546398653,1,4,8,0,1,1
13,0,429.854999994859,1,0,0.463987701170797,0.536012298829202,0,5,8,0,1,1
13,1,657.880000013392,1,1,0.51804327333586,0.481956726664139,1,6,8,0,1,1
13,0,572.674999944865,1,1,0.504831511752285,0.495168488247714,1,7,8,0,0,1
13,0,518.879999988712,1,0,0.458829758559836,0.541170241440163,0,8,8,0,1,1
13,1,546.770000015385,1,1,0.529764318263725,0.470235681736274,1,9,8,0,1,1
13,0,435.30999997165,1,0,0.461813999245011,0.538186000754988,0,10,8,0,1,1
13,0,448.639999958686,1,0,0.489668235927929,0.51033176407207,0,11,8,0,1,1
13,0,368.83500003023,1,1,0.514154533984468,0.485845466015531,1,12,8,0,0,1
13,1,585.454999993089,1,1,0.546637329106221,0.453362670893778,1,13,8,0,1,1
13,0,424.790000019129,1,0,0.448689030547462,0.551310969452537,0,14,8,0,1,1
13,0,476.40499996487,1,1,0.54014914805201,0.459850851947989,1,15,8,0,0,1
13,1,542.129999957978,1,1,0.572921535481744,0.427078464518255,1,16,8,0,1,1
13,0,498.039999976754,1,0,0.429822554227127,0.570177445772872,0,17,8,0,1,1
13,1,620.874999964144,1,0,0.461465210412829,0.53853478958717,0,18,8,0,0,1
13,0,383.585000003222,1,0,0.473973648228214,0.526026351771785,0,19,8,0,1,1
13,0,500.155000016093,1,1,0.508509761811636,0.491490238188363,1,20,8,0,0,1
13,0,515.839999949093,1,0,0.483315138708511,0.516684861291488,0,21,8,0,1,1
13,1,930.970000044908,1,1,0.574171135312702,0.425828864687297,1,22,8,0,1,1
13,1,855.504999984987,1,1,0.566732930626123,0.433267069373876,1,23,8,0,1,1
13,0,451.524999982211,1,0,0.453965647980198,0.546034352019801,0,24,8,0,1,1
13,1,485.17499997979,1,NaN,0.552845216364703,0.447154783635296,NaN,25,8,0,0,1
13,1,400.880000030156,2,1,0.534648150969973,0.465351849030027,0,1,9,1,0,2
13,1,647.814999974798,2,1,0.500171275021402,0.499828724978597,0,2,9,1,0,2
13,0,465.070000034756,2,1,0.537206688871957,0.462793311128042,0,3,9,1,1,2
13,1,748.805000039283,2,0,0.463021078041211,0.536978921958788,1,4,9,1,1,2
13,1,747.035000007599,2,0,0.484882184908842,0.515117815091158,1,5,9,1,1,2
13,1,457.129999995231,2,1,0.51003444098543,0.489965559014569,0,6,9,1,0,2
13,1,436.534999986179,2,0,0.466503224197702,0.533496775802297,1,7,9,1,1,2
13,1,567.10500002373,2,0,0.47858622609329,0.521413773906709,1,8,9,1,1,2
13,1,434.404999949038,2,0,0.476594291727048,0.523405708272952,1,9,9,1,1,2
13,1,313.755000010132,2,1,0.525803712492595,0.474196287507404,0,10,9,1,0,2
13,0,653.455000021494,2,1,0.535940872003974,0.464059127996025,0,11,9,1,1,2
13,0,666.209999995771,2,1,0.560485371355485,0.439514628644514,0,12,9,1,1,2
13,1,476.514999987557,2,0,0.460207702597418,0.539792297402581,1,13,9,1,1,2
13,0,453.344999987166,2,1,0.570355621577005,0.429644378422994,0,14,9,1,1,2
13,0,463.105000031646,2,1,0.53825889691317,0.46174110308683,0,15,9,1,1,2
13,1,420.754999970085,2,0,0.49086589312355,0.509134106876449,1,16,9,1,1,2
13,1,392.76499999687,2,0,0.444368170102068,0.555631829897931,1,17,9,1,1,2
13,1,536.614999989979,2,0,0.464721575980736,0.535278424019263,1,18,9,1,1,2
13,1,381.504999997559,2,0,0.483236685124367,0.516763314875632,1,19,9,1,1,2
13,1,421.065000002272,2,0,0.471661032440607,0.528338967559392,1,20,9,1,1,2
13,1,543.134999985341,2,0,0.442358571608762,0.557641428391237,1,21,9,1,1,2
13,0,599.849999998696,2,1,0.545229219883788,0.454770780116211,0,22,9,1,1,2
13,0,516.545000020414,2,1,0.5654870657146,0.434512934285399,0,23,9,1,1,2
13,0,506.724999984726,2,1,0.560385162371782,0.439614837628217,0,24,9,1,1,2
13,0,458.994999993592,2,1,0.579703168262546,0.420296831737453,0,25,9,1,1,2
13,1,504.899999999906,1,0,0.461700306933774,0.538299693066225,1,1,10,1,1,1
13,0,533.534999995026,1,1,0.555084685248391,0.444915314751608,0,2,10,1,1,1
13,1,516.314999957103,1,0,0.422772247713678,0.577227752286322,1,3,10,1,1,1
13,1,473.230000003241,1,0,0.464982406773426,0.535017593226573,1,4,10,1,1,1
13,1,484.905000019352,1,1,0.525888660772642,0.474111339227357,0,5,10,1,0,1
13,0,428.180000046268,1,1,0.517790945983771,0.482209054016228,0,6,10,1,1,1
13,0,453.02499999525,1,1,0.558948925383653,0.441051074616346,0,7,10,1,1,1
13,1,483.094999974127,1,0,0.439354083300893,0.560645916699106,1,8,10,1,1,1
13,0,351.260000024922,1,1,0.533691071663607,0.466308928336392,0,9,10,1,1,1
13,1,396.515000029467,1,0,0.480242916006782,0.519757083993217,1,10,10,1,1,1
13,1,545.244999986607,1,0,0.490009758884397,0.509990241115603,1,11,10,1,1,1
13,1,577.434999984689,1,0,0.499571894346787,0.500428105653212,1,12,10,1,1,1
13,0,500.214999949093,1,1,0.540476633277839,0.45952336672216,0,13,10,1,1,1
13,1,474.929999967571,1,1,0.503612780148482,0.496387219851517,0,14,10,1,0,1
13,0,477.959999989252,1,1,0.577548183880116,0.422451816119884,0,15,10,1,1,1
13,0,477.064999984577,1,1,0.545385173655103,0.454614826344896,0,16,10,1,1,1
13,1,685.609999985899,1,0,0.440482284150759,0.55951771584924,1,17,10,1,1,1
13,1,491.434999974444,1,0,0.471762919019215,0.528237080980784,1,18,10,1,1,1
13,1,415.705000050365,1,0,0.462192252992635,0.537807747007365,1,19,10,1,1,1
13,1,373.305000015534,1,1,0.515173979482113,0.484826020517886,0,20,10,1,0,1
13,1,441.669999971054,1,0,0.483679280142993,0.516320719857007,1,21,10,1,1,1
13,1,396.575000020675,1,1,0.524040600942519,0.47595939905748,0,22,10,1,0,1
13,1,884.164999995846,1,0,0.468415928996114,0.531584071003885,1,23,10,1,1,1
13,1,547.060000011697,1,0,0.49246190256919,0.507538097430809,1,24,10,1,1,1
13,1,402.424999978393,1,1,0.532973871996302,0.467026128003697,0,25,10,1,0,1
13,1,417.8949999623,4,0,0.198752425218646,0.801247574781353,0,1,11,0,0,4
13,1,413.54500001762,4,1,0.856152323715097,0.143847676284902,1,2,11,0,1,4
13,0,436.77500000922,4,0,0.188601861751015,0.811398138248984,0,3,11,0,1,4
13,0,437.975000008009,4,0,0.187103545612528,0.812896454387471,0,4,11,0,1,4
13,1,441.764999995939,4,1,0.817525732113362,0.182474267886637,1,5,11,0,1,4
13,0,594.875000009778,4,0,0.185972549829591,0.814027450170408,0,6,11,0,1,4
13,1,434.750000014901,4,1,0.814857232738702,0.185142767261297,1,7,11,0,1,4
13,1,439.264999993611,4,1,0.869936210042286,0.130063789957713,1,8,11,0,1,4
13,1,429.134999983944,4,1,0.806080235362187,0.193919764637812,1,9,11,0,1,4
13,1,479.13500003051,4,0,0.158343217002397,0.841656782997602,0,10,11,0,0,4
13,0,626.159999985247,4,0,0.18822083188346,0.811779168116539,0,11,11,0,1,4
13,0,421.359999978449,4,0,0.124778508690331,0.875221491309668,0,12,11,0,1,4
13,1,446.354999963659,4,1,0.84548046798136,0.154519532018639,1,13,11,0,1,4
13,1,875.220000045374,4,1,0.872270731684905,0.127729268315094,1,14,11,0,1,4
13,1,399.039999989327,4,1,0.823145697000068,0.176854302999931,1,15,11,0,1,4
13,1,392.025000008288,4,1,0.839823091709349,0.16017690829065,1,16,11,0,1,4
13,1,414.015000045765,4,1,0.846603885902747,0.153396114097252,1,17,11,0,1,4
13,0,425.329999998211,4,0,0.150310368936152,0.849689631063847,0,18,11,0,1,4
13,0,436.2250000122,4,0,0.166086610803319,0.83391338919668,0,19,11,0,1,4
13,0,412.184999964665,4,0,0.125356367925406,0.874643632074593,0,20,11,0,1,4
13,1,504.740000003948,4,1,0.856620437780947,0.143379562219052,1,21,11,0,1,4
13,1,398.959999962244,4,1,0.863062490737066,0.136937509262933,1,22,11,0,1,4
13,0,415.459999989252,4,0,0.19858166246058,0.801418337539419,0,23,11,0,1,4
13,0,345.404999970924,4,0,0.143360590654513,0.856639409345486,0,24,11,0,1,4
13,0,408.360000001266,4,NaN,0.132160334813769,0.867839665186231,NaN,25,11,0,0,4
13,0,388.370000000577,4,0,0.153422621952111,0.846577378047888,1,1,12,1,0,4
13,0,427.740000013727,4,1,0.85742053832387,0.142579461676129,0,2,12,1,1,4
13,0,761.404999997466,4,1,0.81120924944347,0.18879075055653,0,3,12,1,1,4
13,0,562.350000021979,4,1,0.871572832517598,0.128427167482401,0,4,12,1,1,4
13,1,386.19499997003,4,0,0.196537515604432,0.803462484395568,1,5,12,1,1,4
13,1,548.260000010486,4,0,0.174510285837626,0.825489714162373,1,6,12,1,1,4
13,0,499.494999996386,4,1,0.845685222473132,0.154314777526867,0,7,12,1,1,4
13,0,495.120000035967,4,1,0.868351506251795,0.131648493748204,0,8,12,1,1,4
13,0,494.360000011511,4,1,0.812507861873389,0.18749213812661,0,9,12,1,1,4
13,1,392.564999987371,4,0,0.126167935170707,0.873832064829293,1,10,12,1,1,4
13,0,485.950000002048,4,1,0.871539057468528,0.128460942531471,0,11,12,1,1,4
13,1,536.255000042729,4,0,0.155180001547997,0.844819998452002,1,12,12,1,1,4
13,1,564.760000037495,4,0,0.125125870857287,0.874874129142712,1,13,12,1,1,4
13,0,558.865000028163,4,1,0.80016516091114,0.199834839088859,0,14,12,1,1,4
13,1,412.435000005643,4,0,0.163141037036763,0.836858962963236,1,15,12,1,1,4
13,0,594.660000002477,4,1,0.859974691472224,0.140025308527775,0,16,12,1,1,4
13,1,411.699999996926,4,0,0.196122291328081,0.803877708671918,1,17,12,1,1,4
13,1,484.200000006239,4,0,0.141839161277553,0.858160838722446,1,18,12,1,1,4
13,0,398.864999995566,4,1,0.868751663359109,0.131248336640891,0,19,12,1,1,4
13,1,512.839999981224,4,0,0.179460116909766,0.820539883090233,1,20,12,1,1,4
13,0,466.320000006817,4,1,0.865343977934261,0.134656022065738,0,21,12,1,1,4
13,1,350.634999980684,4,0,0.164350899558051,0.835649100441948,1,22,12,1,1,4
13,0,371.214999991934,4,1,0.855266474939406,0.144733525060593,0,23,12,1,1,4
13,1,328.770000021904,4,0,0.17992110738666,0.820078892613339,1,24,12,1,1,4
13,1,503.224999993108,4,0,0.129014654894979,0.87098534510502,1,25,12,1,1,4
13,1,727.205000002868,2,0,0.462469381169061,0.537530618830938,0,1,13,0,0,2
13,0,500.520000001415,2,0,0.458902708451205,0.541097291548794,0,2,13,0,1,2
13,1,587.865000008605,2,1,0.538014769637701,0.461985230362298,1,3,13,0,1,2
13,0,491.804999997839,2,0,0.498302860233395,0.501697139766604,0,4,13,0,1,2
13,0,551.819999993313,2,0,0.486095612671601,0.513904387328398,0,5,13,0,1,2
13,1,421.394999953918,2,1,0.543764597367819,0.45623540263218,1,6,13,0,1,2
13,0,544.649999996181,2,1,0.50268212642978,0.497317873570219,1,7,13,0,0,2
13,1,525.790000043343,2,1,0.525683534990743,0.474316465009256,1,8,13,0,1,2
13,1,547.584999992977,2,1,0.52082042783891,0.479179572161089,1,9,13,0,1,2
13,0,397.02999999281,2,0,0.422533036194065,0.577466963805934,0,10,13,0,1,2
13,1,658.31500000786,2,1,0.527584046004847,0.472415953995152,1,11,13,0,1,2
13,0,471.680000016931,2,0,0.471780099242133,0.528219900757866,0,12,13,0,1,2
13,1,523.160000040661,2,1,0.563228447125634,0.436771552874365,1,13,13,0,1,2
13,1,811.664999986533,2,1,0.534060793038271,0.465939206961728,1,14,13,0,1,2
13,1,842.334999993909,2,0,0.489550214974454,0.510449785025545,0,15,13,0,0,2
13,0,525.984999956563,2,0,0.447063747841789,0.55293625215821,0,16,13,0,1,2
13,1,992.920000047888,2,1,0.506804538884183,0.493195461115816,1,17,13,0,1,2
13,1,952.319999982137,2,1,0.533833133544669,0.46616686645533,1,18,13,0,1,2
13,1,488.175000005867,2,0,0.469782084480263,0.530217915519736,0,19,13,0,0,2
13,1,515.79999999376,2,0,0.461678368178038,0.538321631821961,0,20,13,0,0,2
13,1,566.619999997783,2,0,0.463943116494302,0.536056883505697,0,21,13,0,0,2
13,1,415.124999999534,2,1,0.50454302814927,0.495456971850729,1,22,13,0,1,2
13,1,1004.13499999558,2,1,0.505552097105475,0.494447902894524,1,23,13,0,1,2
13,0,484.064999967813,2,NaN,0.434171328989805,0.565828671010194,NaN,24,13,0,0,2
13,0,988.554999988991,2,NaN,0.475833752216146,0.524166247783853,NaN,25,13,0,0,2
13,1,438.245000026654,3,0,0.132358389374022,0.867641610625978,1,1,14,1,1,3
13,1,488.899999996647,3,0,0.182852235372286,0.817147764627713,1,2,14,1,1,3
13,0,370.48500002129,3,1,0.850525401198163,0.149474598801836,0,3,14,1,1,3
13,0,461.379999993369,3,1,0.820029212556728,0.179970787443271,0,4,14,1,1,3
13,0,419.87500002142,3,1,0.869311029778681,0.130688970221318,0,5,14,1,1,3
13,0,385.914999991655,3,1,0.847112303194352,0.152887696805647,0,6,14,1,1,3
13,1,707.360000000335,3,0,0.15620157453487,0.843798425465129,1,7,14,1,1,3
13,0,694.369999982882,3,1,0.858843263139446,0.141156736860553,0,8,14,1,1,3
13,1,327.994999999646,3,0,0.123788116110288,0.876211883889711,1,9,14,1,1,3
13,1,379.744999983813,3,0,0.135787873373834,0.864212126626165,1,10,14,1,1,3
13,0,357.495000003837,3,1,0.816660232983174,0.183339767016825,0,11,14,1,1,3
13,1,384.73500002874,3,0,0.13038353111352,0.869616468886479,1,12,14,1,1,3
13,0,424.034999974537,3,1,0.837302707553068,0.162697292446931,0,13,14,1,1,3
13,1,326.739999989513,3,0,0.124725163932108,0.875274836067891,1,14,14,1,1,3
13,1,891.96500001708,3,0,0.180041672899772,0.819958327100227,1,15,14,1,1,3
13,1,917.890000040642,3,0,0.147586999814354,0.852413000185645,1,16,14,1,1,3
13,1,627.280000015161,3,1,0.846168680632295,0.153831319367704,0,17,14,1,0,3
13,1,328.589999990072,3,0,0.12879793971268,0.871202060287319,1,18,14,1,1,3
13,1,780.220000015106,3,0,0.138452584318326,0.861547415681673,1,19,14,1,1,3
13,1,428.630000038538,3,0,0.174763398471568,0.825236601528431,1,20,14,1,1,3
13,0,298.929999989923,3,1,0.855423814259854,0.144576185740145,0,21,14,1,1,3
13,0,438.269999984186,3,1,0.848226361431604,0.151773638568395,0,22,14,1,1,3
13,1,365.415000007487,3,0,0.153325359883609,0.84667464011639,1,23,14,1,1,3
13,0,396.765000012237,3,1,0.871887257039175,0.128112742960824,0,24,14,1,1,3
13,1,698.045000026468,3,1,0.83613569141905,0.163864308580949,0,25,14,1,0,3
13,1,616.540000017266,3,0,0.134964640850489,0.86503535914951,0,1,15,0,0,3
13,0,395.424999995157,3,0,0.166762883124477,0.833237116875522,0,2,15,0,1,3
13,0,411.629999987781,3,0,0.190629981467995,0.809370018532004,0,3,15,0,1,3
13,1,400.534999964293,3,1,0.8585403041897,0.141459695810299,1,4,15,0,1,3
13,1,556.499999947845,3,1,0.872595192831643,0.127404807168356,1,5,15,0,1,3
13,1,418.599999975413,3,1,0.825730600405863,0.174269399594136,1,6,15,0,1,3
13,0,589.230000041425,3,0,0.146134614114761,0.853865385885239,0,7,15,0,1,3
13,0,446.385000017471,3,0,0.174673621021699,0.825326378978301,0,8,15,0,1,3
13,1,406.419999955687,3,1,0.842549395169744,0.157450604830255,1,9,15,0,1,3
13,1,371.990000014193,3,1,0.83174834502002,0.168251654979979,1,10,15,0,1,3
13,1,414.575000002514,3,1,0.859454615858998,0.140545384141001,1,11,15,0,1,3
13,0,365.010000008624,3,0,0.185998878811244,0.814001121188755,0,12,15,0,1,3
13,0,454.939999966882,3,0,0.151879749724268,0.848120250275732,0,13,15,0,1,3
13,1,374.115000013262,3,1,0.845624896466923,0.154375103533076,1,14,15,0,1,3
13,1,446.735000004991,3,1,0.822426869281391,0.177573130718609,1,15,15,0,1,3
13,0,601.069999975152,3,0,0.129148729275506,0.870851270724494,0,16,15,0,1,3
13,0,444.169999973382,3,0,0.120760758851783,0.879239241148216,0,17,15,0,1,3
13,1,410.40500003146,3,1,0.808217516146005,0.191782483853994,1,18,15,0,1,3
13,1,587.104999984148,3,1,0.864265888538564,0.135734111461435,1,19,15,0,1,3
13,1,370.494999981019,3,1,0.832219292557451,0.167780707442548,1,20,15,0,1,3
13,0,424.624999985098,3,0,0.155994852541803,0.844005147458196,0,21,15,0,1,3
13,0,453.235000022687,3,0,0.187335965756413,0.812664034243586,0,22,15,0,1,3
13,1,418.87500003213,3,1,0.840309535438812,0.159690464561187,1,23,15,0,1,3
13,0,541.979999979957,3,0,0.140540610188468,0.859459389811531,0,24,15,0,1,3
13,0,455.09000000311,3,0,0.171089013898046,0.828910986101953,0,25,15,0,1,3
13,1,726.190000015776,1,1,0.50097647257954,0.499023527420459,1,1,16,0,1,1
13,0,724.70500000054,1,1,0.526128151072686,0.473871848927314,1,2,16,0,0,1
13,1,715.964999981224,1,1,0.576479259886566,0.423520740113433,1,3,16,0,1,1
13,0,589.045000029727,1,0,0.475963612355239,0.52403638764476,0,4,16,0,1,1
13,0,494.810000003781,1,0,0.440483017196707,0.559516982803292,0,5,16,0,1,1
13,1,611.81500001112,1,1,0.517181909248142,0.482818090751857,1,6,16,0,1,1
13,0,526.420000009238,1,0,0.483978879295118,0.516021120704881,0,7,16,0,1,1
13,0,455.964999971911,1,0,0.472906668895928,0.527093331104071,0,8,16,0,1,1
13,1,471.109999984037,1,1,0.55653976265737,0.443460237342629,1,9,16,0,1,1
13,1,462.560000014491,1,1,0.563435190594526,0.436564809405473,1,10,16,0,1,1
13,0,454.880000033881,1,0,0.486425387062603,0.513574612937396,0,11,16,0,1,1
13,1,343.790000013541,1,1,0.571800889808646,0.428199110191353,1,12,16,0,1,1
13,1,497.510000015608,1,1,0.513462811497775,0.486537188502225,1,13,16,0,1,1
13,1,467.759999970439,1,1,0.501148822809709,0.49885117719029,1,14,16,0,1,1
13,1,385.405000008177,1,1,0.569472531935653,0.430527468064346,1,15,16,0,1,1
13,0,448.765000037383,1,0,0.455045592106152,0.544954407893847,0,16,16,0,1,1
13,1,418.484999972861,1,1,0.574143335936943,0.425856664063056,1,17,16,0,1,1
13,0,530.815000005532,1,0,0.451617898653829,0.54838210134617,0,18,16,0,1,1
13,1,422.859999991487,1,1,0.571599401736334,0.428400598263665,1,19,16,0,1,1
13,0,606.840000022202,1,0,0.454042929890118,0.545957070109881,0,20,16,0,1,1
13,1,433.444999973289,1,1,0.557608358325859,0.44239164167414,1,21,16,0,1,1
13,0,505.164999980479,1,0,0.43730661287304,0.562693387126959,0,22,16,0,1,1
13,0,490.05500000203,1,0,0.48812427844015,0.511875721559849,0,23,16,0,1,1
13,0,474.590000056196,1,0,0.442093617028674,0.557906382971325,0,24,16,0,1,1
13,0,527.059999993071,1,0,0.454586047600143,0.545413952399856,0,25,16,0,1,1
14,1,910.100000023841,2,0,0.499892844272741,0.500107155727258,1,1,1,1,1,2
14,0,906.599999904632,2,0,0.490748134143406,0.509251865856593,1,2,1,1,0,2
14,1,863,2,1,0.508020553752807,0.491979446247192,0,3,1,1,0,2
14,1,765.5,2,1,0.503140439456687,0.496859560543312,0,4,1,1,0,2
14,1,902.699999928474,2,1,0.540700565040348,0.459299434959651,0,5,1,1,0,2
14,0,697.799999952316,2,0,0.466441079254372,0.533558920745627,1,6,1,1,0,2
14,0,679.599999904632,2,0,0.475620857751636,0.524379142248363,1,7,1,1,0,2
14,1,820.800000071525,2,0,0.49248181114222,0.507518188857779,1,8,1,1,1,2
14,1,594.599999904632,2,1,0.50182380988666,0.498176190113339,0,9,1,1,0,2
14,1,406.5,2,1,0.531626086498644,0.468373913501355,0,10,1,1,0,2
14,1,669.700000047683,2,1,0.579595733819135,0.420404266180864,0,11,1,1,0,2
14,1,698,2,1,0.500991111720706,0.499008888279293,0,12,1,1,0,2
14,1,561.700000047683,2,1,0.539139161133432,0.460860838866567,0,13,1,1,0,2
14,1,804.899999976158,2,0,0.428055271201879,0.57194472879812,1,14,1,1,1,2
14,0,469.5,2,1,0.516815932438405,0.483184067561595,0,15,1,1,1,2
14,1,540,2,0,0.433651094721799,0.5663489052782,1,16,1,1,1,2
14,1,694.900000095367,2,0,0.431281740459877,0.568718259540122,1,17,1,1,1,2
14,0,734.200000047683,2,1,0.500248938184097,0.499751061815902,0,18,1,1,1,2
14,0,719.899999976158,2,0,0.47688352178186,0.52311647821814,1,19,1,1,0,2
14,0,766.899999976158,2,0,0.45838360593168,0.541616394068319,1,20,1,1,0,2
14,0,632.200000047683,2,1,0.532093340546067,0.467906659453932,0,21,1,1,1,2
14,0,574.899999976158,2,1,0.518197814462862,0.481802185537137,0,22,1,1,1,2
14,1,615.899999976158,2,0,0.440227357007546,0.559772642992453,1,23,1,1,1,2
14,1,711.899999976158,2,0,0.462708606204719,0.53729139379528,1,24,1,1,1,2
14,0,485.299999952316,2,1,0.507330378271551,0.492669621728448,0,25,1,1,1,2
14,0,599,1,1,0.575142397268968,0.424857602731031,0,1,2,1,1,1
14,1,534.699999928474,1,0,0.426597655549702,0.573402344450297,1,2,2,1,1,1
14,1,414.100000023841,1,0,0.459627967910948,0.540372032089051,1,3,2,1,1,1
14,0,547.900000095367,1,0,0.493069310263037,0.506930689736962,1,4,2,1,0,1
14,0,510.799999952316,1,1,0.57897306843365,0.421026931566349,0,5,2,1,1,1
14,0,453.399999976158,1,1,0.553825804939668,0.446174195060331,0,6,2,1,1,1
14,1,492,1,0,0.483010707839104,0.516989292160895,1,7,2,1,1,1
14,1,463.600000023841,1,0,0.436428893247934,0.563571106752065,1,8,2,1,1,1
14,0,441.200000047683,1,1,0.530598560454524,0.469401439545475,0,9,2,1,1,1
14,0,529.399999976158,1,1,0.529188490216588,0.470811509783412,0,10,2,1,1,1
14,0,575.899999976158,1,1,0.531783421979274,0.468216578020725,0,11,2,1,1,1
14,1,641.100000023841,1,0,0.4854482737831,0.514551726216899,1,12,2,1,1,1
14,0,506.100000023841,1,1,0.561176895764587,0.438823104235413,0,13,2,1,1,1
14,1,581.899999976158,1,0,0.469979348676893,0.530020651323106,1,14,2,1,1,1
14,1,639.600000023841,1,0,0.459690286038885,0.540309713961114,1,15,2,1,1,1
14,1,764.099999904632,1,0,0.434620359470983,0.565379640529016,1,16,2,1,1,1
14,1,699.799999952316,1,0,0.438206714821344,0.561793285178655,1,17,2,1,1,1
14,0,561.700000047683,1,1,0.511776000899974,0.488223999100025,0,18,2,1,1,1
14,0,505.5,1,1,0.568649118105133,0.431350881894866,0,19,2,1,1,1
14,1,529.399999976158,1,0,0.440110166011435,0.559889833988565,1,20,2,1,1,1
14,1,591.300000071525,1,0,0.471383469089996,0.528616530910003,1,21,2,1,1,1
14,0,479.399999976158,1,1,0.527987363253507,0.472012636746492,0,22,2,1,1,1
14,1,456.399999976158,1,0,0.423478183402223,0.576521816597776,1,23,2,1,1,1
14,0,446.299999952316,1,1,0.563773800087689,0.43622619991231,0,24,2,1,1,1
14,0,408.5,1,1,0.553163761391415,0.446836238608584,0,25,2,1,1,1
14,1,782.700000047683,4,1,0.83415190191522,0.165848098084779,0,1,3,1,0,4
14,1,538.600000023841,4,0,0.145438568695646,0.854561431304353,1,2,3,1,1,4
14,0,382.799999952316,4,1,0.870222614876726,0.129777385123274,0,3,3,1,1,4
14,0,526.100000023841,4,1,0.825979050507782,0.174020949492217,0,4,3,1,1,4
14,0,417.5,4,1,0.824593925370042,0.175406074629957,0,5,3,1,1,4
14,0,463.200000047683,4,1,0.859124237322796,0.140875762677203,0,6,3,1,1,4
14,1,486,4,0,0.120118884588718,0.879881115411281,1,7,3,1,1,4
14,1,450.100000023841,4,0,0.192186721402242,0.807813278597758,1,8,3,1,1,4
14,1,483.300000071525,4,0,0.185468172094876,0.814531827905123,1,9,3,1,1,4
14,0,397,4,1,0.813526592020552,0.186473407979447,0,10,3,1,1,4
14,0,466.599999904632,4,1,0.876152267813586,0.123847732186413,0,11,3,1,1,4
14,1,484.399999976158,4,0,0.136384419669845,0.863615580330154,1,12,3,1,1,4
14,1,467.200000047683,4,0,0.185987616364218,0.814012383635781,1,13,3,1,1,4
14,1,392.5,4,0,0.199115763694973,0.800884236305026,1,14,3,1,1,4
14,1,452.699999928474,4,0,0.185498075470495,0.814501924529505,1,15,3,1,1,4
14,0,498.599999904632,4,1,0.814230823562587,0.185769176437412,0,16,3,1,1,4
14,1,436.5,4,0,0.130875204759272,0.869124795240727,1,17,3,1,1,4
14,1,384.199999928474,4,0,0.136001827584354,0.863998172415646,1,18,3,1,1,4
14,0,448.799999952316,4,1,0.804310723401588,0.195689276598411,0,19,3,1,1,4
14,0,542.799999952316,4,1,0.805853130082409,0.19414686991759,0,20,3,1,1,4
14,0,403.799999952316,4,1,0.835965408548859,0.16403459145114,0,21,3,1,1,4
14,0,457.200000047683,4,1,0.873055386856862,0.126944613143137,0,22,3,1,1,4
14,1,460.399999976158,4,0,0.130675122476154,0.869324877523845,1,23,3,1,1,4
14,0,401.100000023841,4,1,0.832393213967892,0.167606786032107,0,24,3,1,1,4
14,1,340.800000071525,4,0,0.197143809324714,0.802856190675285,1,25,3,1,1,4
14,1,730.799999952316,2,1,0.542418571350879,0.45758142864912,1,1,4,0,1,2
14,1,927.300000071525,2,0,0.487485821359097,0.512514178640902,0,2,4,0,0,2
14,1,959.300000071525,2,1,0.51563917526082,0.484360824739179,1,3,4,0,1,2
14,1,890.400000095367,2,1,0.527773959529569,0.472226040470431,1,4,4,0,1,2
14,1,864.100000023841,2,1,0.511780408000526,0.488219591999473,1,5,4,0,1,2
14,0,965.699999928474,2,0,0.471176108068561,0.528823891931438,0,6,4,0,1,2
14,1,556.199999928474,2,1,0.56437769206059,0.435622307939409,1,7,4,0,1,2
14,0,533.199999928474,2,0,0.432828257262825,0.567171742737174,0,8,4,0,1,2
14,1,378.5,2,1,0.560828286620112,0.439171713379887,1,9,4,0,1,2
14,1,597.5,2,1,0.521735188296208,0.478264811703792,1,10,4,0,1,2
14,1,875.199999928474,2,1,0.509143615752955,0.490856384247045,1,11,4,0,1,2
14,0,786.899999976158,2,0,0.463356674404768,0.536643325595231,0,12,4,0,1,2
14,0,604.700000047683,2,0,0.420886789156577,0.579113210843422,0,13,4,0,1,2
14,1,511.899999976158,2,1,0.509091173018754,0.490908826981246,1,14,4,0,1,2
14,0,847.299999952316,2,1,0.512586748284242,0.487413251715757,1,15,4,0,0,2
14,0,553.899999976158,2,0,0.437224721994431,0.562775278005568,0,16,4,0,1,2
14,0,799.699999928474,2,0,0.455969557026857,0.544030442973142,0,17,4,0,1,2
14,0,543,2,0,0.43312506131887,0.566874938681129,0,18,4,0,1,2
14,1,537.400000095367,2,1,0.51655785970016,0.483442140299839,1,19,4,0,1,2
14,0,447,2,0,0.436956979362162,0.563043020637837,0,20,4,0,1,2
14,1,448.200000047683,2,1,0.560232856348426,0.439767143651573,1,21,4,0,1,2
14,1,592.800000071525,2,1,0.531109937479335,0.468890062520664,1,22,4,0,1,2
14,1,865.600000023841,2,0,0.499290937584507,0.500709062415492,0,23,4,0,0,2
14,0,619.900000095367,2,0,0.485343449681453,0.514656550318547,0,24,4,0,1,2
14,0,520,2,0,0.43297615070427,0.567023849295729,0,25,4,0,1,2
14,1,607.899999976158,4,1,0.869137998926296,0.130862001073704,1,1,5,0,1,4
14,1,441.899999976158,4,1,0.851437050126537,0.148562949873462,1,2,5,0,1,4
14,1,387.099999904632,4,1,0.804326834249707,0.195673165750292,1,3,5,0,1,4
14,0,396.200000047683,4,0,0.125177943476028,0.874822056523971,0,4,5,0,1,4
14,0,368.099999904632,4,0,0.168581252330406,0.831418747669594,0,5,5,0,1,4
14,1,398.100000023841,4,1,0.814111877933056,0.185888122066944,1,6,5,0,1,4
14,0,338,4,0,0.186247629137345,0.813752370862654,0,7,5,0,1,4
14,1,361.799999952316,4,1,0.879384918245215,0.120615081754784,1,8,5,0,1,4
14,0,397.399999976158,4,0,0.149273952855001,0.850726047144998,0,9,5,0,1,4
14,0,367.5,4,0,0.138858057260192,0.861141942739807,0,10,5,0,1,4
14,1,438.399999976158,4,1,0.84440412461326,0.155595875386739,1,11,5,0,1,4
14,0,395.799999952316,4,0,0.124289700983368,0.875710299016631,0,12,5,0,1,4
14,1,371.299999952316,4,1,0.822972515008669,0.17702748499133,1,13,5,0,1,4
14,0,371.899999976158,4,0,0.198339517063952,0.801660482936047,0,14,5,0,1,4
14,1,303.5,4,1,0.814061981433099,0.1859380185669,1,15,5,0,1,4
14,0,359.100000023841,4,0,0.16652785549695,0.833472144503049,0,16,5,0,1,4
14,0,474.200000047683,4,0,0.154984739718373,0.845015260281626,0,17,5,0,1,4
14,0,760.799999952316,4,0,0.165462564617984,0.834537435382015,0,18,5,0,1,4
14,1,446.5,4,1,0.82112873781782,0.178871262182179,1,19,5,0,1,4
14,0,348.300000071525,4,0,0.121304310217139,0.87869568978286,0,20,5,0,1,4
14,1,285.800000071525,4,1,0.86103690642421,0.138963093575789,1,21,5,0,1,4
14,1,445.699999928474,4,1,0.826987748784183,0.173012251215816,1,22,5,0,1,4
14,0,361.899999976158,4,0,0.122971693149166,0.877028306850833,0,23,5,0,1,4
14,0,547.899999976158,4,0,0.136741441871934,0.863258558128065,0,24,5,0,1,4
14,1,430.199999928474,4,1,0.872172649908345,0.127827350091654,1,25,5,0,1,4
14,0,597.300000071525,3,0,0.185289705228703,0.814710294771296,1,1,6,1,0,3
14,1,374.200000047683,3,1,0.830031758638582,0.169968241361417,0,2,6,1,0,3
14,0,366.200000047683,3,0,0.171795712310124,0.828204287689875,1,3,6,1,0,3
14,1,526.299999952316,3,0,0.192064706207894,0.807935293792105,1,4,6,1,1,3
14,0,473.600000023841,3,0,0.154188653761974,0.845811346238025,1,5,6,1,0,3
14,1,511.600000023841,3,1,0.852110282675828,0.147889717324171,0,6,6,1,0,3
14,0,515.099999904632,3,1,0.829550767733089,0.17044923226691,0,7,6,1,1,3
14,0,411.899999976158,3,1,0.815577571749178,0.184422428250821,0,8,6,1,1,3
14,1,349.800000071525,3,0,0.156260567730973,0.843739432269026,1,9,6,1,1,3
14,0,493.399999976158,3,1,0.848676394152296,0.151323605847703,0,10,6,1,1,3
14,1,345.200000047683,3,0,0.132960908662498,0.867039091337501,1,11,6,1,1,3
14,1,482,3,0,0.152952812752997,0.847047187247002,1,12,6,1,1,3
14,1,401.5,3,0,0.150735026684324,0.849264973315675,1,13,6,1,1,3
14,1,409.399999976158,3,0,0.175397822649276,0.824602177350723,1,14,6,1,1,3
14,0,380.299999952316,3,1,0.802227047244056,0.197772952755943,0,15,6,1,1,3
14,0,461.399999976158,3,1,0.876068518350157,0.123931481649843,0,16,6,1,1,3
14,0,425.399999976158,3,1,0.834319358825614,0.165680641174385,0,17,6,1,1,3
14,0,432.199999928474,3,1,0.817604586143987,0.182395413856012,0,18,6,1,1,3
14,1,492.899999976158,3,0,0.151344949669749,0.84865505033025,1,19,6,1,1,3
14,0,516.300000071525,3,1,0.847866542533164,0.152133457466835,0,20,6,1,1,3
14,1,400.100000023841,3,1,0.861084663797153,0.138915336202846,0,21,6,1,0,3
14,1,515.399999976158,3,0,0.16380615079675,0.836193849203249,1,22,6,1,1,3
14,0,428.800000071525,3,1,0.846413096033619,0.15358690396638,0,23,6,1,1,3
14,0,459.200000047683,3,0,0.162905374239852,0.837094625760147,1,24,6,1,0,3
14,1,318.800000071525,3,0,0.153249697375526,0.846750302624473,1,25,6,1,1,3
14,0,630.399999976158,3,1,0.879923053980284,0.120076946019715,1,1,7,0,0,3
14,0,363.700000047683,3,1,0.800615549007173,0.199384450992826,1,2,7,0,0,3
14,1,502,3,0,0.18093833197729,0.819061668022709,0,3,7,0,0,3
14,1,778,3,0,0.136519298186188,0.863480701813811,0,4,7,0,0,3
14,1,501.400000095367,3,1,0.852807248799361,0.147192751200638,1,5,7,0,1,3
14,0,595.899999976158,3,0,0.162006999041662,0.837993000958337,0,6,7,0,1,3
14,0,446.5,3,0,0.13236664805638,0.867633351943619,0,7,7,0,1,3
14,0,857.099999904632,3,0,0.178162671173984,0.821837328826015,0,8,7,0,1,3
14,1,643.899999976158,3,1,0.809462056301273,0.190537943698726,1,9,7,0,1,3
14,0,309.399999976158,3,0,0.183180383982327,0.816819616017673,0,10,7,0,1,3
14,0,593.100000023841,3,1,0.82298061959036,0.177019380409639,1,11,7,0,0,3
14,1,588.300000071525,3,0,0.155018949049283,0.844981050950716,0,12,7,0,0,3
14,1,692.199999928474,3,1,0.841823651653803,0.158176348346196,1,13,7,0,1,3
14,1,374.199999928474,3,1,0.80240397402715,0.197596025972849,1,14,7,0,1,3
14,1,354.399999976158,3,1,0.845611496700446,0.154388503299553,1,15,7,0,1,3
14,0,729.200000047683,3,0,0.142144239567188,0.857855760432811,0,16,7,0,1,3
14,1,546.899999976158,3,1,0.814791793543479,0.18520820645652,1,17,7,0,1,3
14,0,346.200000047683,3,0,0.143930989694427,0.856069010305572,0,18,7,0,1,3
14,0,506.799999952316,3,0,0.179109705645779,0.82089029435422,0,19,7,0,1,3
14,1,455.200000047683,3,1,0.831383224348494,0.168616775651505,1,20,7,0,1,3
14,1,511.800000071525,3,1,0.820900341110888,0.179099658889111,1,21,7,0,1,3
14,0,338.600000023841,3,0,0.173342910269018,0.826657089730981,0,22,7,0,1,3
14,0,393.300000071525,3,0,0.194713688167692,0.805286311832307,0,23,7,0,1,3
14,1,443.699999928474,3,1,0.808040412519677,0.191959587480322,1,24,7,0,1,3
14,0,599.5,3,0,0.128817109264383,0.871182890735616,0,25,7,0,1,3
14,0,796.900000095367,1,0,0.492018018735269,0.50798198126473,0,1,8,0,1,1
14,1,638.200000047683,1,0,0.499160514298715,0.500839485701284,0,2,8,0,0,1
14,0,535.100000023841,1,0,0.422377396700758,0.577622603299242,0,3,8,0,1,1
14,1,473.799999952316,1,1,0.542796558820604,0.457203441179395,1,4,8,0,1,1
14,1,511.200000047683,1,1,0.569946301607,0.430053698392999,1,5,8,0,1,1
14,0,519.400000095367,1,0,0.429188626194597,0.570811373805402,0,6,8,0,1,1
14,1,680.699999928474,1,0,0.457036969222771,0.542963030777228,0,7,8,0,0,1
14,1,742.799999952316,1,1,0.518498595387466,0.481501404612533,1,8,8,0,1,1
14,1,685,1,1,0.568671839596796,0.431328160403203,1,9,8,0,1,1
14,0,713.700000047683,1,0,0.466965708097019,0.53303429190298,0,10,8,0,1,1
14,1,604.299999952316,1,1,0.536446830977901,0.463553169022098,1,11,8,0,1,1
14,1,772.100000023841,1,1,0.529172914016736,0.470827085983263,1,12,8,0,1,1
14,0,413.800000071525,1,0,0.431953364004646,0.568046635995353,0,13,8,0,1,1
14,1,651.799999952316,1,1,0.509877752233536,0.490122247766463,1,14,8,0,1,1
14,1,500.899999976158,1,1,0.573962467516244,0.426037532483755,1,15,8,0,1,1
14,1,529.899999976158,1,0,0.487352601464798,0.512647398535201,0,16,8,0,0,1
14,1,493.299999952316,1,0,0.482771911172885,0.517228088827114,0,17,8,0,0,1
14,1,586.900000095367,1,1,0.532069906956509,0.46793009304349,1,18,8,0,1,1
14,1,640.200000047683,1,1,0.502511030669599,0.4974889693304,1,19,8,0,1,1
14,1,570.799999952316,1,1,0.548409242201349,0.45159075779865,1,20,8,0,1,1
14,0,496.699999928474,1,0,0.461541610642386,0.538458389357613,0,21,8,0,1,1
14,0,514.300000071525,1,0,0.42091038761931,0.579089612380689,0,22,8,0,1,1
14,1,531.899999976158,1,1,0.511278091745976,0.488721908254023,1,23,8,0,1,1
14,0,440.100000023841,1,1,0.545128560059537,0.454871439940462,1,24,8,0,0,1
14,1,632.100000023841,1,0,0.462995263168723,0.537004736831276,0,25,8,0,0,1
14,1,492.200000047683,4,1,0.818061596390756,0.181938403609243,0,1,9,1,0,4
14,1,473.899999976158,4,1,0.865825463828759,0.13417453617124,0,2,9,1,0,4
14,1,381.899999976158,4,0,0.179267257109749,0.820732742890251,1,3,9,1,1,4
14,1,362.199999928474,4,0,0.155654936921085,0.844345063078914,1,4,9,1,1,4
14,0,403.700000047683,4,1,0.818177280038006,0.181822719961993,0,5,9,1,1,4
14,1,322.699999928474,4,0,0.171414956327835,0.828585043672164,1,6,9,1,1,4
14,1,345.799999952316,4,0,0.180637000674092,0.819362999325907,1,7,9,1,1,4
14,0,365.700000047683,4,1,0.813441775349969,0.18655822465003,0,8,9,1,1,4
14,1,314.799999952316,4,0,0.178183692217892,0.821816307782107,1,9,9,1,1,4
14,1,373.200000047683,4,0,0.16884985973623,0.83115014026377,1,10,9,1,1,4
14,0,443.200000047683,4,1,0.817480145154762,0.182519854845237,0,11,9,1,1,4
14,1,363.600000023841,4,0,0.156962040587301,0.843037959412698,1,12,9,1,1,4
14,1,411.599999904632,4,0,0.198823182492507,0.801176817507492,1,13,9,1,1,4
14,0,390.100000023841,4,1,0.826432484347828,0.173567515652172,0,14,9,1,1,4
14,1,342.799999952316,4,0,0.164264146277552,0.835735853722447,1,15,9,1,1,4
14,0,421.599999904632,4,1,0.85657070563038,0.14342929436962,0,16,9,1,1,4
14,0,495.100000023841,4,1,0.855399527918325,0.144600472081674,0,17,9,1,1,4
14,1,371.5,4,0,0.16116263896134,0.838837361038659,1,18,9,1,1,4
14,1,324.399999976158,4,0,0.165001379362963,0.834998620637036,1,19,9,1,1,4
14,0,345.799999952316,4,1,0.873757390966535,0.126242609033464,0,20,9,1,1,4
14,0,477.099999904632,4,1,0.841887388007776,0.158112611992224,0,21,9,1,1,4
14,0,477.600000023841,4,1,0.851177289850376,0.148822710149623,0,22,9,1,1,4
14,1,355.5,4,0,0.129912529505611,0.870087470494388,1,23,9,1,1,4
14,0,325.199999928474,4,1,0.865567798191937,0.134432201808062,0,24,9,1,1,4
14,0,437.099999904632,4,1,0.829883723921613,0.170116276078386,0,25,9,1,1,4
14,1,705.800000071525,2,0,0.481157315537982,0.518842684462017,1,1,10,1,1,2
14,1,346,2,0,0.45409102320685,0.545908976793149,1,2,10,1,1,2
14,0,472.299999952316,2,1,0.560040697399862,0.439959302600137,0,3,10,1,1,2
14,1,353.5,2,0,0.479342508942827,0.520657491057172,1,4,10,1,1,2
14,0,490.5,2,1,0.562708870970974,0.437291129029025,0,5,10,1,1,2
14,1,375.399999976158,2,0,0.461550569002353,0.538449430997646,1,6,10,1,1,2
14,0,335.100000023841,2,1,0.570078474734517,0.429921525265482,0,7,10,1,1,2
14,1,350.399999976158,2,0,0.451247911724499,0.5487520882755,1,8,10,1,1,2
14,0,351.600000023841,2,1,0.560321247679153,0.439678752320846,0,9,10,1,1,2
14,1,401.800000071525,2,1,0.534755886113446,0.465244113886553,0,10,10,1,0,2
14,1,706.699999928474,2,0,0.464627848898577,0.535372151101422,1,11,10,1,1,2
14,1,557.899999976158,2,0,0.422631062627194,0.577368937372805,1,12,10,1,1,2
14,0,553.300000071525,2,1,0.511380878791539,0.48861912120846,0,13,10,1,1,2
14,0,563,2,1,0.523995040684349,0.47600495931565,0,14,10,1,1,2
14,1,466.199999928474,2,0,0.457236720306672,0.542763279693327,1,15,10,1,1,2
14,1,479.700000047683,2,0,0.431485367980805,0.568514632019194,1,16,10,1,1,2
14,1,536.700000047683,2,0,0.440663147642032,0.559336852357967,1,17,10,1,1,2
14,0,425.200000047683,2,1,0.576239753557633,0.423760246442366,0,18,10,1,1,2
14,1,478.5,2,1,0.502502839338676,0.497497160661323,0,19,10,1,0,2
14,1,516.400000095367,2,0,0.443333126953772,0.556666873046227,1,20,10,1,1,2
14,0,416.200000047683,2,1,0.569760500102384,0.430239499897615,0,21,10,1,1,2
14,0,457.399999976158,2,1,0.547383585057884,0.452616414942115,0,22,10,1,1,2
14,0,452.299999952316,2,1,0.521673660790599,0.4783263392094,0,23,10,1,1,2
14,0,445.399999976158,2,1,0.577149220858045,0.422850779141954,0,24,10,1,1,2
14,1,521.299999952316,2,0,0.453164299488396,0.546835700511603,1,25,10,1,1,2
14,1,478.100000023841,3,0,0.137818731646068,0.862181268353931,1,1,11,1,1,3
14,1,352.800000071525,3,1,0.877781839961135,0.122218160038864,0,2,11,1,0,3
14,1,378.799999952316,3,1,0.812661379926091,0.187338620073908,0,3,11,1,0,3
14,1,278.899999976158,3,1,0.810598954615425,0.189401045384574,0,4,11,1,0,3
14,0,357.900000095367,3,1,0.873061617636493,0.126938382363506,0,5,11,1,1,3
14,0,334.5,3,1,0.816853656686197,0.183146343313802,0,6,11,1,1,3
14,0,294,3,1,0.836692158329647,0.163307841670352,0,7,11,1,1,3
