ID	choice	rt	condition_int	state	contrast_left	contrast_right	reward	trials	blocks	contrast	ecoperf
32	0	255.80000001192	2	0	0.433102377463985	0.566897622536014	0	1	1	0	1
32	1	637.099999964237	2	0	0.483653398494518	0.516346601505481	0	2	1	0	0
32	1	612.400000035762	2	1	0.500858467850281	0.499141532149718	1	3	1	0	1
32	1	446.699999988079	2	1	0.577241156031966	0.422758843968033	1	4	1	0	1
32	0	460.700000047683	2	0	0.458183236708206	0.541816763291793	0	5	1	0	1
32	1	404.199999988079	2	1	0.578485073675837	0.421514926324162	1	6	1	0	1
32	0	446.399999976158	2	0	0.432387110243221	0.567612889756778	0	7	1	0	1
32	0	563.600000023841	2	0	0.477728189388288	0.522271810611711	0	8	1	0	1
32	0	459.100000023841	2	0	0.420485864825187	0.579514135174812	0	9	1	0	1
32	1	407.100000023841	2	1	0.553818894216787	0.446181105783212	1	10	1	0	1
32	0	500.30000001192	2	0	0.466997005784333	0.533002994215666	0	11	1	0	1
32	1	449.899999976158	2	1	0.530475019062686	0.469524980937313	1	12	1	0	1
32	0	454.899999976158	2	0	0.42629048242343	0.57370951757657	0	13	1	0	1
32	0	509.5	2	0	0.44794404196785	0.552055958032149	0	14	1	0	1
32	0	661.5	2	0	0.485895763620357	0.514104236379643	0	15	1	0	1
32	1	878.80000001192	2	0	0.494629682503715	0.505370317496284	0	16	1	0	0
32	0	531.5	2	0	0.480590810698712	0.519409189301287	0	17	1	0	1
32	0	734.299999952316	2	0	0.469074656450355	0.530925343549644	0	18	1	0	1
32	1	785.30000001192	2	1	0.516478694987234	0.483521305012765	1	19	1	0	1
32	1	592.099999964237	2	1	0.536473740228348	0.463526259771651	1	20	1	0	1
32	1	602.80000001192	2	1	0.515965017792002	0.484034982207997	1	21	1	0	1
32	1	613.899999976158	2	1	0.504426701424487	0.495573298575512	1	22	1	0	1
32	1	542.600000023841	2	1	0.518687734862351	0.481312265137648	1	23	1	0	1
32	1	509.200000047683	2	1	0.576542909183962	0.423457090816037	1	24	1	0	1
32	1	452.699999988079	2	1	0.538526156445343	0.461473843554656	1	25	1	0	1
32	0	463.399999976158	2	1	0.572322946122263	0.427677053877736	0	1	2	1	1
32	1	886.900000035762	2	0	0.471931997003354	0.528068002996645	1	2	2	1	1
32	1	612.899999976158	2	0	0.442692318330214	0.557307681669785	1	3	2	1	1
32	1	447.899999976158	2	0	0.426214408774629	0.57378559122537	1	4	2	1	1
32	0	525.80000001192	2	1	0.566546083076097	0.433453916923902	0	5	2	1	1
32	0	483	2	1	0.564980583521556	0.435019416478443	0	6	2	1	1
32	0	489.80000001192	2	1	0.523548501146791	0.476451498853208	0	7	2	1	1
32	1	480.30000001192	2	0	0.450180071749668	0.549819928250331	1	8	2	1	1
32	1	493.299999952316	2	0	0.442203277825258	0.557796722174741	1	9	2	1	1
32	1	513.599999964237	2	0	0.481534661183584	0.518465338816415	1	10	2	1	1
32	0	459.199999988079	2	1	0.560600988940828	0.439399011059171	0	11	2	1	1
32	0	446.5	2	1	0.508543797668892	0.491456202331107	0	12	2	1	1
32	0	474.199999988079	2	0	0.488762874852637	0.511237125147362	1	13	2	1	0
32	1	525.30000001192	2	0	0.481738062009995	0.518261937990004	1	14	2	1	1
32	1	642.899999976158	2	0	0.421385642212451	0.578614357787548	1	15	2	1	1
32	0	458.30000001192	2	1	0.506500061347099	0.4934999386529	0	16	2	1	1
32	0	511.600000023841	2	1	0.505430431431643	0.494569568568356	0	17	2	1	1
32	1	453.699999988079	2	0	0.449103911837689	0.55089608816231	1	18	2	1	1
32	0	408.200000047683	2	1	0.533758479367191	0.466241520632808	0	19	2	1	1
32	0	491.099999964237	2	1	0.544004867001176	0.455995132998824	0	20	2	1	1
32	0	414	2	1	0.52109362258251	0.478906377417489	0	21	2	1	1
32	1	453.400000035762	2	0	0.461733897109972	0.538266102890027	1	22	2	1	1
32	0	359.100000023841	2	1	0.567361813243061	0.432638186756938	0	23	2	1	1
32	1	470.100000023841	2	0	0.495452219376016	0.504547780623983	1	24	2	1	1
32	0	403.399999976158	2	1	0.546598164583791	0.453401835416208	0	25	2	1	1
32	0	425.5	4	0	0.179569792424394	0.820430207575605	1	1	3	1	0
32	1	357.100000023841	4	0	0.123509644879744	0.876490355120255	1	2	3	1	1
32	1	369.899999976158	4	0	0.197202637294644	0.802797362705355	1	3	3	1	1
32	1	461.699999988079	4	0	0.137753827757104	0.862246172242895	1	4	3	1	1
32	1	362.100000023841	4	0	0.131343049936081	0.868656950063918	1	5	3	1	1
32	0	330.5	4	1	0.863070135682232	0.136929864317767	0	6	3	1	1
32	0	344.199999988079	4	1	0.844297221912862	0.155702778087137	0	7	3	1	1
32	0	452.30000001192	4	1	0.858761726629774	0.141238273370225	0	8	3	1	1
32	0	492.699999988079	4	1	0.870595991963091	0.129404008036908	0	9	3	1	1
32	0	356.30000001192	4	1	0.850767498000815	0.149232501999184	0	10	3	1	1
32	1	371.199999988079	4	0	0.189658666754371	0.810341333245628	1	11	3	1	1
32	0	309.699999988079	4	1	0.808238157285426	0.191761842714573	0	12	3	1	1
32	1	398.799999952316	4	0	0.172919449131466	0.827080550868533	1	13	3	1	1
32	1	406.299999952316	4	0	0.127362142969563	0.872637857030436	1	14	3	1	1
32	0	402.5	4	1	0.839706752368815	0.160293247631184	0	15	3	1	1
32	0	407.099999964237	4	1	0.808982605496192	0.191017394503807	0	16	3	1	1
32	1	338	4	0	0.199363094504119	0.80063690549588	1	17	3	1	1
32	0	322.199999988079	4	1	0.855756819961134	0.144243180038865	0	18	3	1	1
32	1	332.600000023841	4	0	0.1690969736318	0.830903026368199	1	19	3	1	1
32	1	505	4	0	0.149344868159463	0.850655131840536	1	20	3	1	1
32	0	386.100000023841	4	1	0.866188593626538	0.133811406373461	0	21	3	1	1
32	1	348	4	0	0.178666164486489	0.82133383551351	1	22	3	1	1
32	0	322.80000001192	4	1	0.817914584321763	0.182085415678236	0	23	3	1	1
32	1	344.100000023841	4	0	0.161366768133463	0.838633231866536	1	24	3	1	1
32	0	425.599999964237	4	1	0.870840389037564	0.129159610962435	0	25	3	1	1
32	1	399.400000035762	4	0	0.199472922027816	0.800527077972183	0	1	4	0	0
32	0	384.699999988079	4	0	0.162000550830708	0.837999449169291	0	2	4	0	1
32	1	318.400000035762	4	1	0.873314729432713	0.126685270567286	1	3	4	0	1
32	0	394.600000023841	4	0	0.15589074247112	0.84410925752888	0	4	4	0	1
32	0	439.299999952316	4	0	0.143565538643515	0.856434461356484	0	5	4	0	1
32	1	480.199999988079	4	1	0.859203210054261	0.140796789945738	1	6	4	0	1
32	1	481.100000023841	4	1	0.850547097618102	0.149452902381897	1	7	4	0	1
32	0	452.899999976158	4	0	0.149388344389378	0.850611655610621	0	8	4	0	1
32	0	399	4	0	0.180173552009011	0.819826447990988	0	9	4	0	1
32	0	492	4	0	0.186334469719112	0.813665530280887	0	10	4	0	1
32	0	385.80000001192	4	0	0.14475212439893	0.855247875601069	0	11	4	0	1
32	1	444.600000023841	4	1	0.875710338697012	0.124289661302987	1	12	4	0	1
32	1	416.5	4	1	0.869878848900192	0.130121151099807	1	13	4	0	1
32	0	377.400000035762	4	0	0.150356085783938	0.849643914216061	0	14	4	0	1
32	0	434.600000023841	4	0	0.138777575592064	0.861222424407935	0	15	4	0	1
32	0	391.399999976158	4	0	0.172681178660336	0.827318821339664	0	16	4	0	1
32	0	326.30000001192	4	0	0.178475343570711	0.821524656429288	0	17	4	0	1
32	1	439.600000023841	4	1	0.861268337649003	0.138731662350996	1	18	4	0	1
32	1	422.299999952316	4	1	0.855614440996343	0.144385559003656	1	19	4	0	1
32	1	440.199999988079	4	1	0.869383780211114	0.130616219788885	1	20	4	0	1
32	0	393.099999964237	4	0	0.158533383188598	0.841466616811401	0	21	4	0	1
32	1	447.30000001192	4	1	0.84358438961649	0.156415610383509	1	22	4	0	1
32	1	469.699999988079	4	1	0.824540017630425	0.175459982369574	1	23	4	0	1
32	1	414.899999976158	4	1	0.874800435700979	0.12519956429902	1	24	4	0	1
32	1	452.199999988079	4	1	0.844483615737845	0.155516384262154	1	25	4	0	1
32	0	774.199999988079	1	0	0.445453059599098	0.554546940400901	1	1	5	1	0
32	1	371.699999988079	1	1	0.566951379515522	0.433048620484477	0	2	5	1	0
32	0	335.199999988079	1	1	0.57016222386753	0.429837776132469	0	3	5	1	1
32	1	427.80000001192	1	0	0.432423048670548	0.567576951329451	1	4	5	1	1
32	0	329.100000023841	1	1	0.502349193124103	0.497650806875896	0	5	5	1	1
32	0	417.5	1	1	0.579105995796736	0.420894004203263	0	6	5	1	1
32	0	404.799999952316	1	1	0.564445488028881	0.435554511971118	0	7	5	1	1
32	0	437.199999988079	1	1	0.564583511266506	0.435416488733493	0	8	5	1	1
32	0	594.699999988079	1	1	0.527038024294741	0.472961975705258	0	9	5	1	1
32	0	408.600000023841	1	1	0.518812099848555	0.481187900151444	0	10	5	1	1
32	1	552	1	0	0.459940472448994	0.540059527551005	1	11	5	1	1
32	0	436.599999964237	1	0	0.497511365262988	0.502488634737011	1	12	5	1	0
32	1	561.599999964237	1	0	0.462492895135091	0.537507104864908	1	13	5	1	1
32	1	463.399999976158	1	0	0.46318162880332	0.536818371196679	1	14	5	1	1
32	1	473.200000047683	1	0	0.434160977621345	0.565839022378654	1	15	5	1	1
32	1	597.80000001192	1	0	0.473133945967097	0.526866054032902	1	16	5	1	1
32	0	532.199999988079	1	1	0.563897135674371	0.436102864325628	0	17	5	1	1
32	1	393.100000023841	1	0	0.461225155799808	0.538774844200191	1	18	5	1	1
32	1	454.100000023841	1	0	0.443680925530552	0.556319074469447	1	19	5	1	1
32	0	476.5	1	1	0.506366108523756	0.493633891476243	0	20	5	1	1
32	0	424.30000001192	1	1	0.57737268120282	0.422627318797179	0	21	5	1	1
32	0	423.399999976158	1	1	0.563591271963254	0.436408728036745	0	22	5	1	1
32	0	561.400000035762	1	0	0.494392050016851	0.505607949983148	1	23	5	1	0
32	0	438.30000001192	1	1	0.560013407672944	0.439986592327055	0	24	5	1	1
32	1	812.699999988079	1	0	0.461572987253246	0.538427012746753	1	25	5	1	1
32	1	400.299999952316	3	1	0.814617365988151	0.185382634011848	1	1	6	0	1
32	1	382.80000001192	3	0	0.190584598633878	0.809415401366121	0	2	6	0	0
32	0	402.799999952316	3	0	0.194008637808135	0.805991362191865	0	3	6	0	1
32	0	409.30000001192	3	0	0.184934957131003	0.815065042868997	0	4	6	0	1
32	1	526.699999988079	3	1	0.830176785123997	0.169823214876002	1	5	6	0	1
32	1	431.899999976158	3	0	0.156938055508301	0.843061944491698	0	6	6	0	0
32	0	385.899999976158	3	0	0.165187173121691	0.834812826878308	0	7	6	0	1
32	1	535.80000001192	3	1	0.845564150489612	0.154435849510387	1	8	6	0	1
32	0	363.700000047683	3	0	0.149261630660087	0.850738369339913	0	9	6	0	1
32	0	485	3	1	0.827939058134041	0.172060941865958	1	10	6	0	0
32	1	302.099999964237	3	0	0.169308305720016	0.830691694279983	0	11	6	0	0
32	0	275.5	3	0	0.190532514047034	0.809467485952965	0	12	6	0	1
32	0	272.100000023841	3	0	0.170582865388153	0.829417134611846	0	13	6	0	1
32	0	464.30000001192	3	1	0.862778592428275	0.137221407571724	1	14	6	0	0
32	0	384.600000023841	3	1	0.839326220336586	0.160673779663413	1	15	6	0	0
32	1	432.399999976158	3	1	0.845281850317632	0.154718149682368	1	16	6	0	1
32	1	344.199999988079	3	1	0.803389605578028	0.196610394421971	1	17	6	0	1
32	1	392.600000023841	3	1	0.852213451756857	0.147786548243142	1	18	6	0	1
32	0	522.5	3	0	0.168440944806064	0.831559055193935	0	19	6	0	1
32	1	380.099999964237	3	0	0.171275287569038	0.828724712430961	0	20	6	0	0
32	0	299	3	1	0.862874374022479	0.13712562597752	1	21	6	0	0
32	0	322.5	3	0	0.121075481710599	0.8789245182894	0	22	6	0	1
32	0	432.5	3	0	0.174091896092845	0.825908103907155	0	23	6	0	1
32	1	469.199999988079	3	1	0.871358616731841	0.128641383268158	1	24	6	0	1
32	0	582.099999964237	3	1	0.826988536086542	0.173011463913457	1	25	6	0	0
32	0	448.599999964237	3	0	0.124248429556777	0.875751570443222	1	1	7	1	0
32	1	422.599999964237	3	1	0.85097639791152	0.149023602088479	0	2	7	1	0
32	0	489.399999976158	3	0	0.153277929014674	0.846722070985325	1	3	7	1	0
32	0	635.5	3	0	0.151220747625188	0.848779252374811	1	4	7	1	0
32	1	473.700000047683	3	1	0.811884013994445	0.188115986005554	0	5	7	1	0
32	0	397.400000035762	3	0	0.176901587992114	0.823098412007885	1	6	7	1	0
32	1	353.5	3	0	0.171921792819066	0.828078207180934	1	7	7	1	1
32	1	445.900000035762	3	0	0.196751793274125	0.803248206725874	1	8	7	1	1
32	1	802.200000047683	3	1	0.82482334244329	0.175176657556709	0	9	7	1	0
32	1	348.099999964237	3	1	0.860773272236903	0.139226727763096	0	10	7	1	0
32	0	524	3	1	0.805221391828257	0.194778608171742	0	11	7	1	1
32	1	608.399999976158	3	0	0.199211217750211	0.800788782249788	1	12	7	1	1
32	1	447.099999964237	3	0	0.122682007750539	0.87731799224946	1	13	7	1	1
32	1	854.5	3	1	0.854087203479218	0.145912796520781	0	14	7	1	0
32	1	1	3	0	0.127314327685785	0.872685672314215	1	15	7	1	1
32	1	154.5	3	1	0.854653204500756	0.145346795499244	0	16	7	1	0
32	1	367	3	1	0.833552702175512	0.166447297824487	0	17	7	1	0
32	1	89	3	0	0.179687065901597	0.820312934098402	1	18	7	1	1
32	1	7.20000004768371	3	1	0.835393911782176	0.164606088217823	0	19	7	1	0
32	0	358.199999988079	3	0	0.135907468697127	0.864092531302872	1	20	7	1	0
32	1	250.799999952316	3	0	0.179367017684926	0.820632982315073	1	21	7	1	1
32	1	400	3	1	0.821140172955392	0.178859827044607	0	22	7	1	0
32	0	135.30000001192	3	1	0.812845209511837	0.187154790488162	0	23	7	1	1
32	1	363.099999964237	3	0	0.161601048300141	0.838398951699858	1	24	7	1	1
32	0	266.100000023841	3	1	0.830849578649293	0.169150421350706	0	25	7	1	1
32	1	300.399999976158	1	1	0.536238671388703	0.463761328611296	1	1	8	0	1
32	0	527.399999976158	1	0	0.445699010419172	0.554300989580827	0	2	8	0	1
32	1	438.600000023841	1	0	0.480105007946847	0.519894992053152	0	3	8	0	0
32	1	878.399999976158	1	1	0.513958499385062	0.486041500614937	1	4	8	0	1
32	0	496.80000001192	1	0	0.457539335074329	0.54246066492567	0	5	8	0	1
32	0	518.400000035762	1	0	0.462713306998541	0.537286693001458	0	6	8	0	1
32	1	432.400000035762	1	1	0.574818049665199	0.4251819503348	1	7	8	0	1
32	1	714	1	1	0.508045163097979	0.49195483690202	1	8	8	0	1
32	1	669.5	1	1	0.535346999458317	0.464653000541682	1	9	8	0	1
32	1	527.5	1	1	0.523045459124321	0.476954540875678	1	10	8	0	1
32	1	441.100000023841	1	1	0.515364113172146	0.484635886827853	1	11	8	0	1
32	1	640.80000001192	1	1	0.567794605508381	0.432205394491618	1	12	8	0	1
32	1	412.5	1	1	0.565982162766157	0.434017837233842	1	13	8	0	1
32	1	647.5	1	1	0.541947198433173	0.458052801566826	1	14	8	0	1
32	0	525.899999976158	1	0	0.494733359598617	0.505266640401382	0	15	8	0	1
32	0	503.100000023841	1	0	0.48678915726591	0.513210842734089	0	16	8	0	1
32	0	458.699999988079	1	0	0.426724454726871	0.573275545273128	0	17	8	0	1
32	1	370.400000035762	1	0	0.443547492452122	0.556452507547877	0	18	8	0	0
32	1	424.900000035762	1	1	0.567700658085955	0.432299341914044	1	19	8	0	1
32	0	465.700000047683	1	0	0.460686073966242	0.539313926033758	0	20	8	0	1
32	1	327.199999988079	1	0	0.421927903769112	0.578072096230888	0	21	8	0	0
32	1	440.699999988079	1	1	0.56943509437728	0.430564905622719	1	22	8	0	1
32	0	318.399999976158	1	1	0.576030723278871	0.423969276721128	1	23	8	0	0
32	0	464.600000023841	1	0	0.483701294908157	0.516298705091842	0	24	8	0	1
32	1	674.099999964237	1	0	0.486258343926537	0.513741656073462	0	25	8	0	0
32	1	444.5	4	1	0.866271867275309	0.13372813272469	1	1	9	0	1
32	0	408.399999976158	4	0	0.177291745717354	0.822708254282646	0	2	9	0	1
32	0	375.200000047683	4	0	0.166421031645826	0.833578968354173	0	3	9	0	1
32	0	329.80000001192	4	0	0.192051561075757	0.807948438924242	0	4	9	0	1
32	1	419.80000001192	4	1	0.85327382893846	0.146726171061539	1	5	9	0	1
32	0	378.5	4	0	0.127552398024637	0.872447601975362	0	6	9	0	1
32	1	379	4	1	0.852925902421079	0.14707409757892	1	7	9	0	1
32	1	603	4	1	0.834743612943515	0.165256387056484	1	8	9	0	1
32	0	313.80000001192	4	0	0.123523538604936	0.876476461395063	0	9	9	0	1
32	1	404.399999976158	4	1	0.854743469181471	0.145256530818528	1	10	9	0	1
32	1	430	4	1	0.816298986087177	0.183701013912822	1	11	9	0	1
32	0	434.899999976158	4	0	0.156281174984213	0.843718825015786	0	12	9	0	1
32	0	356.100000023841	4	0	0.131580404238649	0.86841959576135	0	13	9	0	1
32	1	371	4	1	0.844232662789935	0.155767337210064	1	14	9	0	1
32	1	406	4	1	0.812507929821133	0.187492070178866	1	15	9	0	1
32	0	325.600000023841	4	0	0.190836260584233	0.809163739415766	0	16	9	0	1
32	0	365.799999952316	4	0	0.163369352831963	0.836630647168036	0	17	9	0	1
32	0	383.80000001192	4	0	0.136587775850455	0.863412224149544	0	18	9	0	1
32	1	332.699999988079	4	1	0.828735340989547	0.171264659010452	1	19	9	0	1
32	0	376.30000001192	4	0	0.128991407831597	0.871008592168402	0	20	9	0	1
32	1	348.600000023841	4	1	0.821435308591728	0.178564691408272	1	21	9	0	1
32	1	435.80000001192	4	1	0.845539253127627	0.154460746872372	1	22	9	0	1
32	1	422	4	1	0.803348920136636	0.196651079863364	1	23	9	0	1
32	1	388.5	4	0	0.188599270689095	0.811400729310904	0	24	9	0	0
32	1	388.5	4	1	0.810066565909222	0.189933434090777	1	25	9	0	1
32	1	337.199999988079	3	1	0.804576067041732	0.195423932958267	0	1	10	1	0
32	0	458.600000023841	3	1	0.809369739519989	0.19063026048001	0	2	10	1	1
32	1	342.80000001192	3	0	0.120487204298852	0.879512795701147	1	3	10	1	1
32	0	603.899999976158	3	1	0.878486060177005	0.121513939822994	0	4	10	1	1
32	1	566.600000023841	3	0	0.1760501603021	0.823949839697899	1	5	10	1	1
32	0	426.80000001192	3	0	0.142900362060801	0.857099637939198	1	6	10	1	0
32	0	469.5	3	1	0.877430935422399	0.1225690645776	0	7	10	1	1
32	1	301.5	3	0	0.133228832067365	0.866771167932634	1	8	10	1	1
32	1	383.80000001192	3	0	0.1236996062945	0.876300393705499	1	9	10	1	1
32	0	421.900000035762	3	1	0.855116973588662	0.144883026411337	0	10	10	1	1
32	1	339.5	3	0	0.14544752042386	0.854552479576139	1	11	10	1	1
32	0	336.5	3	1	0.869013578813585	0.130986421186414	0	12	10	1	1
32	1	337.699999988079	3	0	0.121446128230542	0.878553871769457	1	13	10	1	1
32	1	402.30000001192	3	0	0.161219352318703	0.838780647681296	1	14	10	1	1
32	1	539.900000035762	3	0	0.188551696393915	0.811448303606084	1	15	10	1	1
32	1	356.600000023841	3	0	0.165133531422784	0.834866468577215	1	16	10	1	1
32	0	357	3	1	0.815617546840975	0.184382453159024	0	17	10	1	1
32	1	257.200000047683	3	1	0.85513920850686	0.144860791493139	0	18	10	1	0
32	0	493.600000023841	3	1	0.819446504104597	0.180553495895402	0	19	10	1	1
32	1	306.199999988079	3	0	0.123547597120477	0.876452402879522	1	20	10	1	1
32	0	390.600000023841	3	1	0.850395341669703	0.149604658330296	0	21	10	1	1
32	0	417.30000001192	3	1	0.834831893646615	0.165168106353384	0	22	10	1	1
32	0	402.900000035762	3	1	0.82037845190672	0.179621548093279	0	23	10	1	1
32	0	415	3	1	0.800648137790075	0.199351862209924	0	24	10	1	1
32	1	354.5	3	0	0.141785736328776	0.858214263671223	1	25	10	1	1
32	0	463.400000035762	1	0	0.468604082568976	0.531395917431023	1	1	11	1	0
32	0	467.399999976158	1	0	0.425088515797146	0.574911484202853	1	2	11	1	0
32	1	694.899999976158	1	1	0.547559767512178	0.452440232487821	0	3	11	1	0
32	0	453.80000001192	1	1	0.518212468111827	0.481787531888172	0	4	11	1	1
32	0	557.599999964237	1	1	0.500429960604411	0.499570039395588	0	5	11	1	1
32	1	428.399999976158	1	1	0.577485082627429	0.42251491737257	0	6	11	1	0
32	0	560.199999988079	1	0	0.470525716216824	0.529474283783175	1	7	11	1	0
32	0	530.30000001192	1	0	0.44552026778335	0.554479732216649	1	8	11	1	0
32	1	618.599999964237	1	1	0.542199787760468	0.457800212239531	0	9	11	1	0
32	0	461.5	1	1	0.510371312780827	0.489628687219172	0	10	11	1	1
32	1	395.100000023841	1	1	0.57296567258528	0.427034327414719	0	11	11	1	0
32	0	426.100000023841	1	0	0.420290763699887	0.579709236300112	1	12	11	1	0
32	0	458.100000023841	1	0	0.491652975561029	0.50834702443897	1	13	11	1	0
32	0	447.699999988079	1	0	0.446578852558918	0.553421147441081	1	14	11	1	0
32	0	492.900000035762	1	0	0.452989223966127	0.547010776033872	1	15	11	1	0
32	0	270.900000035762	1	0	0.466247984744245	0.533752015255754	1	16	11	1	0
32	0	457.699999988079	1	0	0.489553624577341	0.510446375422658	1	17	11	1	0
32	0	349.399999976158	1	1	0.51141185201366	0.488588147986339	0	18	11	1	1
32	0	303.699999988079	1	0	0.43281190704223	0.567188092957769	1	19	11	1	0
32	0	274.30000001192	1	1	0.508820734629826	0.491179265370173	0	20	11	1	1
32	0	351.30000001192	1	1	0.531763842753514	0.468236157246486	0	21	11	1	1
32	0	296.599999964237	1	1	0.579680857934245	0.420319142065754	0	22	11	1	1
32	0	303.100000023841	1	1	0.57381015268845	0.426189847311549	0	23	11	1	1
32	0	360.900000035762	1	0	0.437633067766257	0.562366932233742	1	24	11	1	0
32	0	243.900000035762	1	1	0.501903058194595	0.498096941805404	0	25	11	1	1
32	0	481.80000001192	2	0	0.444186618802343	0.555813381197656	1	1	12	1	0
32	1	568.399999976158	2	0	0.437839475980341	0.562160524019658	1	2	12	1	1
32	0	749.699999988079	2	0	0.482192275056208	0.517807724943791	1	3	12	1	0
32	0	653.700000047683	2	1	0.502569932571609	0.497430067428391	0	4	12	1	1
32	0	430.30000001192	2	1	0.569164171904784	0.430835828095215	0	5	12	1	1
32	0	413.399999976158	2	1	0.534267089098857	0.465732910901142	0	6	12	1	1
32	1	401.199999988079	2	0	0.476392555404492	0.523607444595507	1	7	12	1	1
32	0	372.600000023841	2	1	0.542290919964364	0.457709080035635	0	8	12	1	1
32	1	398	2	0	0.468118254350565	0.531881745649434	1	9	12	1	1
32	1	485.100000023841	2	0	0.448707516396532	0.551292483603467	1	10	12	1	1
32	0	367.100000023841	2	1	0.570040389374806	0.429959610625193	0	11	12	1	1
32	0	404	2	1	0.55800148365043	0.441998516349569	0	12	12	1	1
32	1	371.799999952316	2	0	0.447092408302678	0.552907591697321	1	13	12	1	1
32	1	478.5	2	0	0.433888728743347	0.566111271256652	1	14	12	1	1
32	1	463.5	2	0	0.43672721204427	0.563272787955729	1	15	12	1	1
32	0	382.199999988079	2	1	0.559326273358794	0.440673726641205	0	16	12	1	1
32	1	417.399999976158	2	0	0.453624218842929	0.54637578115707	1	17	12	1	1
32	1	432.30000001192	2	0	0.471661228651707	0.528338771348292	1	18	12	1	1
32	0	417.199999988079	2	1	0.564984531448448	0.435015468551551	0	19	12	1	1
32	1	401	2	0	0.478148229743895	0.521851770256104	1	20	12	1	1
32	1	481.399999976158	2	0	0.430347245521279	0.56965275447872	1	21	12	1	1
32	0	551.899999976158	2	1	0.551122181139721	0.448877818860278	0	22	12	1	1
32	1	396.80000001192	2	1	0.568824542712889	0.43117545728711	0	23	12	1	0
32	0	475.80000001192	2	1	0.565067250118219	0.43493274988178	0	24	12	1	1
32	1	419.199999988079	2	1	0.50204022159729	0.497959778402709	0	25	12	1	0
32	1	483.399999976158	2	0	0.42273904407276	0.577260955927239	0	1	13	0	0
32	1	733.80000001192	2	1	0.512019357223787	0.487980642776213	1	2	13	0	1
32	1	721	2	1	0.513120661053394	0.486879338946605	1	3	13	0	1
32	1	492.80000001192	2	1	0.577488631922258	0.422511368077741	1	4	13	0	1
32	0	522.80000001192	2	0	0.478659948324279	0.52134005167572	0	5	13	0	1
32	0	423.599999964237	2	1	0.515331015486677	0.484668984513322	1	6	13	0	0
32	1	465.599999964237	2	1	0.526701935522058	0.473298064477941	1	7	13	0	1
32	1	729.400000035762	2	1	0.507741131660392	0.492258868339607	1	8	13	0	1
32	0	464.699999988079	2	0	0.482690453721963	0.517309546278036	0	9	13	0	1
32	1	486.899999976158	2	1	0.523449884479014	0.476550115520985	1	10	13	0	1
32	0	634	2	0	0.435452924289636	0.564547075710363	0	11	13	0	1
32	0	410.5	2	0	0.478020622553398	0.521979377446601	0	12	13	0	1
32	1	479.5	2	1	0.559954139851523	0.440045860148476	1	13	13	0	1
32	0	408.199999988079	2	0	0.489435299346436	0.510564700653563	0	14	13	0	1
32	1	515.100000023841	2	1	0.567828347418654	0.432171652581346	1	15	13	0	1
32	0	518.099999964237	2	0	0.446735757093476	0.553264242906523	0	16	13	0	1
32	0	422.599999964237	2	0	0.448168018707427	0.551831981292572	0	17	13	0	1
32	1	454.699999988079	2	1	0.537826370844491	0.462173629155508	1	18	13	0	1
32	0	467.400000035762	2	0	0.480702894966779	0.51929710503322	0	19	13	0	1
32	1	414.699999988079	2	1	0.510664525966376	0.489335474033623	1	20	13	0	1
32	0	452	2	0	0.438547972264587	0.561452027735412	0	21	13	0	1
32	0	486	2	0	0.454131617108731	0.545868382891268	0	22	13	0	1
32	0	605.799999952316	2	0	0.482921949596404	0.517078050403595	0	23	13	0	1
32	0	437.400000035762	2	0	0.466781970926485	0.533218029073514	0	24	13	0	1
32	1	416.30000001192	2	1	0.556124973181085	0.443875026818915	1	25	13	0	1
32	1	661.199999988079	3	1	0.859318241877726	0.140681758122273	1	1	14	0	1
32	0	356.899999976158	3	1	0.87246854625486	0.127531453745139	1	2	14	0	0
32	0	378.599999964237	3	1	0.813557905604423	0.186442094395576	1	3	14	0	0
32	0	329	3	1	0.826720109918079	0.17327989008192	1	4	14	0	0
32	1	604.80000001192	3	0	0.130463069662341	0.869536930337658	0	5	14	0	0
32	1	413.30000001192	3	1	0.80629036310528	0.193709636894719	1	6	14	0	1
32	1	415.80000001192	3	0	0.129908382107769	0.87009161789223	0	7	14	0	0
32	0	322.100000023841	3	1	0.83549820400975	0.164501795990249	1	8	14	0	0
32	1	290.199999988079	3	0	0.148062650854704	0.851937349145295	0	9	14	0	0
32	0	465.199999988079	3	0	0.155442365156301	0.844557634843698	0	10	14	0	1
32	0	420.200000047683	3	0	0.19729370951443	0.802706290485569	0	11	14	0	1
32	0	408.600000023841	3	0	0.184263203576162	0.815736796423837	0	12	14	0	1
32	0	448.199999988079	3	0	0.132696467128628	0.867303532871371	0	13	14	0	1
32	1	785.199999988079	3	1	0.868783819419239	0.13121618058076	1	14	14	0	1
32	1	395.099999964237	3	0	0.133156584450464	0.866843415549535	0	15	14	0	0
32	1	384.599999964237	3	0	0.126670416718474	0.873329583281525	0	16	14	0	0
32	0	429.80000001192	3	0	0.130949441056063	0.869050558943936	0	17	14	0	1
32	0	404.899999976158	3	1	0.834709332929973	0.165290667070026	1	18	14	0	0
32	1	517.299999952316	3	1	0.827106848755776	0.172893151244223	1	19	14	0	1
32	1	347.599999964237	3	0	0.127297403177667	0.872702596822332	0	20	14	0	0
32	1	104.5	3	0	0.120541813386969	0.87945818661303	0	21	14	0	0
32	1	361.5	3	1	0.865333621797701	0.134666378202298	1	22	14	0	1
32	1	359.5	3	1	0.834127833754679	0.16587216624532	1	23	14	0	1
32	1	267.5	3	0	0.125253779580243	0.874746220419756	0	24	14	0	0
32	1	15.4000000357627	3	1	0.861780171207673	0.138219828792326	1	25	14	0	1
32	1	378.299999952316	4	1	0.823920779948724	0.176079220051275	0	1	15	1	0
32	0	445.30000001192	4	0	0.175364091782543	0.824635908217456	1	2	15	1	0
32	1	477.399999976158	4	0	0.131433495030439	0.86856650496956	1	3	15	1	1
32	0	194	4	1	0.834977283266086	0.165022716733913	0	4	15	1	1
32	0	273.30000001192	4	0	0.138709506155592	0.861290493844407	1	5	15	1	0
32	1	798.5	4	1	0.879404567125476	0.120595432874524	0	6	15	1	0
32	0	514.600000023841	4	0	0.196577636629071	0.803422363370928	1	7	15	1	0
32	0	371.199999988079	4	0	0.194306372658409	0.80569362734159	1	8	15	1	0
32	0	444.80000001192	4	1	0.836649603156397	0.163350396843603	0	9	15	1	1
32	0	396	4	1	0.814713151141451	0.185286848858548	0	10	15	1	1
32	1	172.299999952316	4	1	0.837810460428609	0.16218953957139	0	11	15	1	0
32	1	262.600000023841	4	0	0.137062324339353	0.862937675660646	1	12	15	1	1
32	1	503.900000035762	4	0	0.161872785523469	0.83812721447653	1	13	15	1	1
32	1	335.099999964237	4	0	0.188217271908154	0.811782728091845	1	14	15	1	1
32	1	357.399999976158	4	0	0.149293756560785	0.850706243439214	1	15	15	1	1
32	0	510.80000001192	4	1	0.812540242069854	0.187459757930146	0	16	15	1	1
32	1	309.899999976158	4	0	0.142183467871662	0.857816532128337	1	17	15	1	1
32	0	410.100000023841	4	1	0.837786446445221	0.162213553554778	0	18	15	1	1
32	1	310	4	0	0.132647171856163	0.867352828143836	1	19	15	1	1
32	0	337.400000035762	4	1	0.843662251053909	0.15633774894609	0	20	15	1	1
32	0	389.399999976158	4	1	0.807146384310697	0.192853615689302	0	21	15	1	1
32	0	392.699999988079	4	1	0.842106104934837	0.157893895065162	0	22	15	1	1
32	0	363.30000001192	4	1	0.87469689981963	0.125303100180369	0	23	15	1	1
32	1	433.5	4	0	0.140555446191804	0.859444553808195	1	24	15	1	1
32	1	354	4	0	0.166168968584024	0.833831031415975	1	25	15	1	1
32	1	523.599999964237	1	1	0.554353226178373	0.445646773821626	1	1	16	0	1
32	0	341.600000023841	1	1	0.57113926338572	0.428860736614279	1	2	16	0	0
32	0	455.699999988079	1	0	0.427703011889976	0.572296988110023	0	3	16	0	1
32	0	390	1	0	0.429366892836133	0.570633107163866	0	4	16	0	1
32	1	421.699999988079	1	1	0.516379272386976	0.483620727613023	1	5	16	0	1
32	0	426.400000035762	1	0	0.453148338925634	0.546851661074365	0	6	16	0	1
32	0	395.900000035762	1	0	0.431345228933035	0.568654771066964	0	7	16	0	1
32	1	473.5	1	1	0.518408264693166	0.481591735306833	1	8	16	0	1
32	0	374	1	0	0.430922481877161	0.569077518122838	0	9	16	0	1
32	1	439.700000047683	1	1	0.551126582455085	0.448873417544914	1	10	16	0	1
32	1	486.399999976158	1	1	0.503347526038904	0.496652473961096	1	11	16	0	1
32	0	394.5	1	0	0.448770169810813	0.551229830189186	0	12	16	0	1
32	1	539.30000001192	1	1	0.514992031804229	0.48500796819577	1	13	16	0	1
32	1	373.399999976158	1	1	0.529647447363088	0.470352552636911	1	14	16	0	1
32	0	418.30000001192	1	1	0.505727485547179	0.49427251445282	1	15	16	0	0
32	0	448.80000001192	1	0	0.462575204547243	0.537424795452756	0	16	16	0	1
32	1	415.099999964237	1	1	0.541130648625562	0.458869351374437	1	17	16	0	1
32	0	442.30000001192	1	0	0.451425861686541	0.548574138313458	0	18	16	0	1
32	1	607.5	1	1	0.528907067610263	0.471092932389736	1	19	16	0	1
32	0	343	1	1	0.569349793418659	0.430650206581341	1	20	16	0	0
32	1	770	1	0	0.497339300740264	0.502660699259735	0	21	16	0	0
32	0	310.100000023841	1	0	0.483395842324649	0.51660415767535	0	22	16	0	1
32	0	464.600000023841	1	0	0.44982079873977	0.550179201260229	0	23	16	0	1
32	0	425	1	0	0.44031991797364	0.559680082026359	0	24	16	0	1
32	0	400.80000001192	1	1	0.54512651018981	0.454873489810189	1	25	16	0	0
