ID	choice	rt	choice_cond	state	contrast_left	contrast_right	mu	correct	trials	blocks	contrast	congruence	con_diff_choice	ecoperf
270	1	[605]	3	0	0.12729132151681	0.872708678483189	83	0	1	1	0	1	0.745417356966379	0
270	1	[592.8999999985099]	3	1	0.946638838028891	0.0533611619711081	20	0	2	1	0	1	0.893277676057783	1
270	1	[481.6000000014901]	3	1	0.905195710061081	0.0948042899389183	80	1	3	1	0	1	0.810391420122163	1
270	1	[452.70000000298023]	3	1	0.912993155206499	0.0870068447935001	25	0	4	1	0	1	0.825986310412999	1
270	0	[568.3999999985099]	3	1	0.900604637596263	0.0993953624037362	76	0	5	1	0	1	0.801209275192527	0
270	1	[389.69999999552965]	3	0	0.0802754572269254	0.919724542773074	78	0	6	1	0	1	0.839449085546149	0
270	1	[500.40000000596046]	3	1	0.877027708722304	0.122972291277696	21	0	7	1	0	1	0.754055417444608	1
270	1	[462.19999999552965]	3	1	0.904850274550536	0.0951497254494636	81	1	8	1	0	1	0.809700549101072	1
270	0	[531.5]	3	0	0.142237605409717	0.857762394590282	20	0	9	1	0	1	0.715524789180565	1
270	0	[517.2999999970198]	3	0	0.0673341905775329	0.932665809422467	80	1	10	1	0	1	0.865331618844934	1
270	0	[498.59999999403954]	3	0	0.134117929566826	0.865882070433173	27	0	11	1	0	1	0.731764140866347	1
270	0	[765.5]	3	0	0.0571324795563745	0.942867520443625	76	1	12	1	0	1	0.885735040887251	1
270	1	[555.6000000014901]	3	1	0.936706591813296	0.0632934081867038	78	1	13	1	0	1	0.873413183626592	1
270	0	[622]	3	0	0.123016160229217	0.876983839770782	81	1	14	1	0	1	0.753967679541565	1
270	1	[505.29999999701977]	3	1	0.865820864568327	0.134179135431672	30	0	15	1	0	1	0.731641729136655	1
270	1	[461]	3	0	0.0623864001533137	0.937613599846686	73	0	16	1	0	1	0.875227199693372	0
270	0	[555.7000000029802]	3	0	0.0504894401159677	0.949510559884032	84	1	17	1	0	1	0.899021119768064	1
270	0	[523.3999999985099]	3	0	0.109570056504632	0.890429943495367	29	0	18	1	0	1	0.780859886990735	1
270	1	[745.2000000029802]	3	1	0.908804000155681	0.0911959998443182	80	1	19	1	0	1	0.817608000311363	1
270	0	[649.5]	3	0	0.0939113079860694	0.90608869201393	79	1	20	1	0	1	0.812177384027861	1
270	1	[529.2000000029802]	3	1	0.873648296036511	0.126351703963489	85	1	21	1	0	1	0.747296592073022	1
270	0	[473.1000000014901]	3	0	0.0671836424209331	0.932816357579066	85	1	22	1	0	1	0.865632715158133	1
270	1	[446.29999999701977]	3	1	0.890695840089979	0.10930415991002	83	1	23	1	0	1	0.781391680179959	1
270	1	[965.6000000014901]	3	1	0.940804286843611	0.0591957131563883	83	1	24	1	0	1	0.881608573687223	1
270	0	[560.5999999940395]	3	0	0.0702764713997004	0.929723528600299	25	0	25	1	0	1	0.859447057200599	1
270	0	[626]	2	0	0.416464222741894	0.583535777258105	25	0	1	2	1	0	0.167071554516211	0
270	1	[826.8999999985099]	2	0	0.446917451737552	0.553082548262447	20	1	2	2	1	0	0.106165096524895	1
270	1	[509.6000000014901]	2	0	0.467253875643196	0.532746124356803	18	1	3	2	1	0	0.065492248713607	1
270	0	[671.3999999985099]	2	1	0.513721310676307	0.486278689323692	18	1	4	2	1	0	0.027442621352615	1
270	1	[502.59999999403954]	2	0	0.452713287341148	0.547286712658851	20	1	5	2	1	0	0.094573425317703	1
270	1	[504.09999999403954]	2	0	0.472185136242723	0.527814863757276	20	1	6	2	1	0	0.055629727514553	1
270	0	[550.8999999985099]	2	1	0.559608777175938	0.440391222824061	20	1	7	2	1	0	0.119217554351877	1
270	1	[560.1000000014901]	2	0	0.440920260948023	0.559079739051976	17	1	8	2	1	0	0.118159478103953	1
270	0	[525.1000000014901]	2	1	0.558516542873561	0.441483457126438	16	1	9	2	1	0	0.117033085747123	1
270	1	[478.3999999985099]	2	0	0.468550137544227	0.531449862455772	21	1	10	2	1	0	0.062899724911545	1
270	0	[514.1000000014901]	2	1	0.577189922294076	0.422810077705923	20	1	11	2	1	0	0.154379844588153	1
270	0	[546.1000000014901]	2	1	0.58640433213876	0.413595667861239	20	1	12	2	1	0	0.172808664277521	1
270	1	[568.6000000014901]	2	0	0.477624033303707	0.522375966696292	19	1	13	2	1	0	0.044751933392585	1
270	0	[526.2999999970198]	2	1	0.530731562765583	0.469268437234416	21	1	14	2	1	0	0.061463125531167	1
270	1	[785.7000000029802]	2	0	0.46296005440933	0.537039945590669	21	1	15	2	1	0	0.074079891181339	1
270	1	[519.2999999970198]	2	0	0.409662675449599	0.5903373245504	18	1	16	2	1	0	0.180674649100801	1
270	0	[512.7000000029802]	2	1	0.59960677956389	0.400393220436109	17	1	17	2	1	0	0.199213559127781	1
270	1	[578.4000000059605]	2	0	0.434468015958245	0.565531984041754	20	1	18	2	1	0	0.131063968083509	1
270	0	[521]	2	1	0.540528199123654	0.459471800876345	17	1	19	2	1	0	0.081056398247309	1
270	0	[625.6999999955297]	2	1	0.543330923517578	0.456669076482421	17	1	20	2	1	0	0.0866618470351569	1
270	1	[514]	2	0	0.452028722134919	0.54797127786508	22	1	21	2	1	0	0.095942555730161	1
270	0	[515.7000000029802]	2	1	0.527889522012453	0.472110477987546	22	1	22	2	1	0	0.055779044024907	1
270	1	[746.4000000059605]	2	1	0.518763732275096	0.481236267724903	22	0	23	2	1	0	0.037527464550193	0
270	0	[701.1999999955297]	2	1	0.523480263885255	0.476519736114744	20	1	24	2	1	0	0.046960527770511	1
270	1	[524.7999999970198]	2	0	0.473930295619	0.526069704380999	17	1	25	2	1	0	0.052139408761999	1
270	0	[720.5]	3	1	0.888991356777242	0.111008643222757	80	1	1	3	1	1	0.777982713554485	1
270	0	[504.29999999701977]	3	1	0.903123009247046	0.0968769907529538	85	1	2	3	1	1	0.806246018494092	1
270	1	[432.09999999403954]	3	0	0.143444657842385	0.856555342157614	23	0	3	3	1	1	0.713110684315229	1
270	0	[514.0999999940395]	3	1	0.91377857679264	0.0862214232073598	25	0	4	3	1	1	0.82755715358528	1
270	0	[540.8000000044703]	3	1	0.917714296335738	0.0822857036642614	82	1	5	3	1	1	0.835428592671477	1
270	0	[403.1000000014901]	3	1	0.913587482871007	0.0864125171289926	27	0	6	3	1	1	0.827174965742014	1
270	0	[622.5]	3	1	0.941920803708624	0.0580791962913759	78	1	7	3	1	1	0.883841607417248	1
270	1	[453.3999999985099]	3	0	0.105626723542472	0.894373276457527	80	1	8	3	1	1	0.788746552915055	1
270	1	[428.20000000298023]	3	0	0.0608434020986962	0.939156597901303	29	0	9	3	1	1	0.878313195802607	1
270	1	[797]	3	1	0.8722984871216	0.127701512878399	79	0	10	3	1	1	0.744596974243201	0
270	0	[576.7999999970198]	3	1	0.90489432431355	0.0951056756864491	83	1	11	3	1	1	0.809788648627101	1
270	1	[404.5]	3	0	0.0747928922490459	0.925207107750954	79	1	12	3	1	1	0.850414215501908	1
270	1	[457.09999999403954]	3	0	0.0632643410025569	0.936735658997443	21	0	13	3	1	1	0.873471317994886	1
270	0	[510]	3	0	0.086483398262024	0.913516601737976	78	0	14	3	1	1	0.827033203475952	0
270	0	[424.80000000447035]	3	1	0.910382555705536	0.089617444294464	86	1	15	3	1	1	0.820765111411072	1
270	1	[602.8999999985099]	3	0	0.0643088923448141	0.935691107655185	84	1	16	3	1	1	0.871382215310371	1
270	0	[458.19999999552965]	3	1	0.872544569126994	0.127455430873005	31	0	17	3	1	1	0.745089138253989	1
270	0	[737.2999999970198]	3	1	0.942039894616933	0.057960105383066	86	1	18	3	1	1	0.884079789233867	1
270	0	[500.3999999985099]	3	1	0.881670588405227	0.118329411594772	95	1	19	3	1	1	0.763341176810455	1
270	1	[411.30000000447035]	3	0	0.129695289886449	0.87030471011355	34	0	20	3	1	1	0.740609420227101	1
270	1	[453.8999999985099]	3	0	0.0714376529663397	0.92856234703366	89	1	21	3	1	1	0.85712469406732	1
270	1	[438.3999999985099]	3	0	0.105318325360971	0.894681674639028	86	1	22	3	1	1	0.789363349278057	1
270	1	[436]	3	0	0.0928405222529133	0.907159477747086	81	1	23	3	1	1	0.814318955494173	1
270	0	[503.19999999552965]	3	1	0.870397767596958	0.129602232403041	27	0	24	3	1	1	0.740795535193917	1
270	1	[471]	3	0	0.110229159953381	0.889770840046618	87	0	25	3	1	1	0.779541680093237	1
270	1	[678.3999999985099]	2	0	0.431865943639255	0.568134056360745	27	0	1	4	0	0	0.13626811272149	0
270	0	[590.1000000014901]	2	1	0.590185727564269	0.40981427243573	24	0	2	4	0	0	0.180371455128539	0
270	1	[494]	2	1	0.583846311356759	0.41615368864324	21	1	3	4	0	0	0.167692622713519	1
270	0	[542.7999999970198]	2	0	0.455694171732143	0.544305828267856	21	1	4	4	0	0	0.088611656535713	1
270	1	[628.8000000044703]	2	1	0.5580594515704	0.441940548429599	26	1	5	4	0	0	0.116118903140801	1
270	0	[514]	2	0	0.443630700815209	0.55636929918479	22	1	6	4	0	0	0.112738598369581	1
270	0	[531.3000000044703]	2	0	0.417355428239982	0.582644571760017	27	1	7	4	0	0	0.165289143520035	1
270	0	[676]	2	0	0.482898445050466	0.517101554949534	22	1	8	4	0	0	0.0342031098990681	1
270	0	[502.1000000014901]	2	0	0.400115728011216	0.599884271988783	21	1	9	4	0	0	0.199768543977567	1
270	1	[510.8999999985099]	2	1	0.541695734802915	0.458304265197084	27	1	10	4	0	0	0.083391469605831	1
270	0	[464.1000000014901]	2	0	0.408270198100513	0.591729801899486	18	1	11	4	0	0	0.183459603798973	1
270	1	[686.6000000014901]	2	0	0.48444085902253	0.515559140977469	23	0	12	4	0	0	0.031118281954939	0
270	0	[529.2000000029802]	2	0	0.40007388355167	0.599926116448329	23	1	13	4	0	0	0.199852232896659	1
270	1	[528.5]	2	1	0.582076740731826	0.417923259268173	20	1	14	4	0	0	0.164153481463653	1
270	0	[825.8999999985099]	2	1	0.517624938450807	0.482375061549192	16	0	15	4	0	0	0.035249876901615	0
270	1	[515.2000000029802]	2	1	0.579083337889287	0.420916662110713	16	1	16	4	0	0	0.158166675778574	1
270	0	[487.5]	2	0	0.479621734318463	0.520378265681536	15	1	17	4	0	0	0.040756531363073	1
270	1	[693.6000000014901]	2	1	0.505852092027603	0.494147907972397	20	1	18	4	0	0	0.011704184055206	1
270	1	[896.2999999970198]	2	1	0.522873747331544	0.477126252668455	22	1	19	4	0	0	0.045747494663089	1
270	0	[918]	2	0	0.49194329760058	0.508056702399419	16	1	20	4	0	0	0.016113404798839	1
270	1	[722.5]	2	1	0.535967060549995	0.464032939450004	16	1	21	4	0	0	0.071934121099991	1
270	1	[652.3000000044703]	2	1	0.533620809082147	0.466379190917852	16	1	22	4	0	0	0.067241618164295	1
270	0	[645.5999999940395]	2	0	0.471747621785906	0.528252378214093	15	1	23	4	0	0	0.056504756428187	1
270	0	[756.3000000044703]	2	0	0.496916402580686	0.503083597419313	16	1	24	4	0	0	0.00616719483862699	1
270	1	[599.2999999970198]	2	1	0.500279095245652	0.499720904754348	16	0	25	4	0	0	0.000558190491303956	1
270	1	[692.3999999985099]	1	0	0.436853645239015	0.563146354760984	75	0	1	5	0	1	0.126292709521969	0
270	1	[680.2999999970198]	1	0	0.489691445684728	0.510308554315271	77	0	2	5	0	1	0.020617108630543	0
270	1	[627.6000000014901,667]	1	1	0.564073468733685	0.435926531266314	76	0	3	5	0	1	0.128146937467371	1
270	1	[500.1000000014901]	1	1	0.591210671183384	0.408789328816615	80	1	4	5	0	1	0.182421342366769	1
270	0	[588.7000000029802]	1	0	0.437550809110969	0.56244919088903	29	0	5	5	0	1	0.124898381778061	1
270	1	[505.8999999985099]	1	0	0.476808885391735	0.523191114608264	23	0	6	5	0	1	0.046382229216529	0
270	1	[978]	1	1	0.520871824861189	0.47912817513881	30	0	7	5	0	1	0.041743649722379	1
270	1	[502.8999999985099]	1	1	0.56534958288613	0.434650417113869	75	1	8	5	0	1	0.130699165772261	1
270	0	[565.5]	1	0	0.425279603273244	0.574720396726755	33	0	9	5	0	1	0.149440793453511	1
270	1	[606.3999999985099]	1	1	0.596014619720684	0.403985380279315	35	0	10	5	0	1	0.192029239441369	1
270	1	[373.09999999403954]	1	0	0.467285670024845	0.532714329975154	78	0	11	5	0	1	0.065428659950309	0
270	1	[483]	1	0	0.485495883381153	0.514504116618846	82	0	12	5	0	1	0.029008233237693	0
270	1	[560.1999999955297]	1	1	0.576674123985844	0.423325876014155	80	1	13	5	0	1	0.153348247971689	1
270	0	[661]	1	0	0.471262808561998	0.528737191438001	81	1	14	5	0	1	0.057474382876003	1
270	0	[704.4000000059605]	1	0	0.471831748158082	0.528168251841917	77	1	15	5	0	1	0.056336503683835	1
270	1	[801.9000000059605]	1	1	0.514051534350025	0.485948465649974	75	1	16	5	0	1	0.028103068700051	1
270	0	[536.0999999940395]	1	0	0.430859540174997	0.569140459825002	26	0	17	5	0	1	0.138280919650005	1
270	1	[724]	1	0	0.469385550792593	0.530614449207406	77	0	18	5	0	1	0.061228898414813	0
270	1	[739.6000000014901]	1	1	0.526201555025832	0.473798444974167	32	0	19	5	0	1	0.052403110051665	1
270	1	[465.69999999552965]	1	1	0.505278301201296	0.494721698798703	27	1	20	5	0	1	0.010556602402593	1
270	1	[671.5]	1	1	0.563898657868574	0.436101342131425	76	1	21	5	0	1	0.127797315737149	1
270	1	[712.2999999970198]	1	1	0.505759377808419	0.49424062219158	70	1	22	5	0	1	0.011518755616839	1
270	1	[478.1000000014901]	1	0	0.452704235070585	0.547295764929414	77	0	23	5	0	1	0.094591529858829	0
270	1	[796.8999999985099]	1	1	0.538555891689827	0.461444108310172	73	1	24	5	0	1	0.077111783379655	1
270	0	[613.6000000014901]	1	0	0.468463948886205	0.531536051113794	39	0	25	5	0	1	0.063072102227589	1
270	1	[673]	1	1	0.595082965681023	0.404917034318976	72	0	1	6	0	0	0.190165931362047	1
270	1	[568.4000000059605]	1	1	0.527851346882826	0.472148653117173	28	1	2	6	0	0	0.055702693765653	1
270	1	[739.5999999940395]	1	0	0.488086716348677	0.511913283651322	19	0	3	6	0	0	0.023826567302645	0
270	0	[606.1999999955297]	1	0	0.417323571936381	0.582676428063618	22	1	4	6	0	0	0.165352856127237	1
270	0	[738.6000000014901]	1	0	0.488357236231971	0.511642763768028	21	0	5	6	0	0	0.0232855275360569	1
270	0	[605.8999999985099]	1	0	0.430078882137781	0.569921117862218	21	1	6	6	0	0	0.139842235724437	1
270	1	[654.7000000029802]	1	1	0.526231597926885	0.473768402073114	79	0	7	6	0	0	0.052463195853771	1
270	1	[711.3999999985099]	1	1	0.529443303005369	0.47055669699463	21	1	8	6	0	0	0.058886606010739	1
270	1	[562.2999999970198]	1	0	0.44860741440635	0.551392585593649	79	1	9	6	0	0	0.102785171187299	0
270	1	[556.5]	1	1	0.563529840047083	0.436470159952916	78	0	10	6	0	0	0.127059680094167	1
270	1	[526.1000000014901]	1	1	0.530034130282465	0.469965869717534	23	1	11	6	0	0	0.060068260564931	1
270	0	[690.5]	1	1	0.570293621611579	0.42970637838842	17	0	12	6	0	0	0.140587243223159	0
270	0	[577.4000000059605]	1	0	0.401085519690163	0.598914480309837	19	1	13	6	0	0	0.197828960619674	1
270	1	[672.9000000059605]	1	1	0.592887119808824	0.407112880191175	80	0	14	6	0	0	0.185774239617649	1
270	0	[675.2000000029802]	1	0	0.481736293351265	0.518263706648734	21	1	15	6	0	0	0.036527413297469	1
270	0	[644.5999999940395]	1	1	0.583793102692022	0.416206897307977	20	0	16	6	0	0	0.167586205384045	0
270	1	[549.3000000044703]	1	1	0.594155096575093	0.405844903424906	20	1	17	6	0	0	0.188310193150187	1
270	1	[569.9000000059605]	1	0	0.40217354456467	0.597826455435329	19	0	18	6	0	0	0.195652910870659	0
270	0	[594.5]	1	1	0.578070571425838	0.421929428574161	22	0	19	6	0	0	0.156141142851677	0
270	0	[524.2000000029802]	1	1	0.569056504337026	0.430943495662973	20	0	20	6	0	0	0.138113008674053	0
270	0	[523.4000000059605]	1	0	0.462400232658942	0.537599767341057	17	1	21	6	0	0	0.075199534682115	1
270	0	[497.8999999985099,756.3999999985099]	1	0	0.415360820672602	0.584639179327397	78	0	22	6	0	0	0.169278358654795	1
270	1	[580]	1	0	0.447059711841042	0.552940288158957	28	0	23	6	0	0	0.105880576317915	0
270	0	[498.5]	1	0	0.459975835989871	0.540024164010128	20	1	24	6	0	0	0.080048328020257	1
270	0	[538.1000000014901]	1	0	0.418140599853382	0.581859400146617	81	0	25	6	0	0	0.163718800293235	1
270	0	[669.5]	2	0	0.438895614782646	0.561104385217353	81	0	1	7	1	1	0.122208770434707	0
270	1	[511.29999999701977]	2	0	0.408967759181266	0.591032240818733	80	1	2	7	1	1	0.182064481637467	1
270	1	[515.3999999985099]	2	0	0.427037622794324	0.572962377205675	83	1	3	7	1	1	0.145924754411351	1
270	0	[561.2000000029802]	2	1	0.556615564375128	0.443384435624871	86	1	4	7	1	1	0.113231128750257	1
270	1	[471.79999999701977]	2	0	0.442290505469117	0.557709494530882	82	1	5	7	1	1	0.115418989061765	1
270	1	[544.3000000044703]	2	0	0.469256476215287	0.530743523784712	83	1	6	7	1	1	0.061487047569425	1
270	0	[638.8000000044703]	2	1	0.561992207343284	0.438007792656715	80	1	7	7	1	1	0.123984414686569	1
270	0	[620.5999999940395]	2	1	0.572049994372789	0.42795000562721	77	1	8	7	1	1	0.144099988745579	1
270	0	[520.2999999970198]	2	1	0.545381869911494	0.454618130088505	82	1	9	7	1	1	0.090763739822989	1
270	0	[489.29999999701977]	2	1	0.589375787565608	0.410624212434391	80	1	10	7	1	1	0.178751575131217	1
270	1	[493]	2	0	0.404876907011987	0.595123092988012	80	1	11	7	1	1	0.190246185976025	1
270	1	[480.69999999552965]	2	0	0.417657777924107	0.582342222075892	81	1	12	7	1	1	0.164684444151785	1
270	0	[567.6999999955297]	2	1	0.537429398233093	0.462570601766906	81	1	13	7	1	1	0.074858796466187	1
270	1	[514.1999999955297]	2	0	0.477288898417053	0.522711101582946	80	1	14	7	1	1	0.045422203165893	1
270	0	[729.1999999955297]	2	1	0.528639743633662	0.471360256366337	80	1	15	7	1	1	0.057279487267325	1
270	0	[687.6999999955297]	2	1	0.502104574904363	0.497895425095636	83	1	16	7	1	1	0.004209149808727	1
270	0	[585.1000000014901]	2	1	0.591379185293854	0.408620814706145	83	1	17	7	1	1	0.182758370587709	1
270	1	[481.6000000014901]	2	0	0.441588372317016	0.558411627682983	84	1	18	7	1	1	0.116823255365967	1
270	0	[533.3999999985099]	2	1	0.557486022296384	0.442513977703615	81	1	19	7	1	1	0.114972044592769	1
270	1	[691.1000000014901]	2	1	0.511664544255714	0.488335455744285	82	0	20	7	1	1	0.023329088511429	0
270	1	[545.8000000044703]	2	0	0.421146163010494	0.578853836989505	84	1	21	7	1	1	0.157707673979011	1
270	1	[515]	2	0	0.460849507908346	0.539150492091653	85	1	22	7	1	1	0.078300984183307	1
270	1	[689.7999999970198]	2	0	0.486731224689803	0.513268775310196	85	1	23	7	1	1	0.026537550620393	1
270	0	[605.8999999985099]	2	1	0.57677591448983	0.423224085510169	83	1	24	7	1	1	0.153551828979661	1
270	0	[518.6999999955297]	2	1	0.590573796682289	0.40942620331771	81	0	25	7	1	1	0.181147593364579	1
270	1	[487.30000000447035]	1	0	0.473804538636309	0.52619546136369	20	0	1	8	1	1	0.052390922727381	1
270	1	[571.3000000044703]	1	1	0.547906917286134	0.452093082713865	80	0	2	8	1	1	0.0958138345722691	0
270	1	[576.1000000014901]	1	1	0.564499621246585	0.435500378753414	80	0	3	8	1	1	0.128999242493171	0
270	0	[600.2000000029802]	1	1	0.534688109507148	0.465311890492851	17	0	4	8	1	1	0.069376219014297	1
270	1	[441]	1	0	0.414475892152016	0.585524107847983	81	1	5	8	1	1	0.171048215695967	1
270	1	[582.8999999985099]	1	1	0.519656483063946	0.480343516936053	81	0	6	8	1	1	0.039312966127893	0
270	0	[731.8000000044703]	1	1	0.581813773800521	0.418186226199478	22	0	7	8	1	1	0.163627547601043	1
270	1	[635.6000000014901]	1	1	0.507021188123779	0.49297881187622	29	0	8	8	1	1	0.0140423762475591	0
270	1	[403.20000000298023]	1	0	0.471206181811033	0.528793818188966	20	0	9	8	1	1	0.057587636377933	1
270	0	[492.1000000014901]	1	0	0.425411211268129	0.57458878873187	84	0	10	8	1	1	0.149177577463741	0
270	1	[381.8999999985099]	1	0	0.477082564777899	0.5229174352221	72	0	11	8	1	1	0.045834870444201	1
270	1	[500.6000000014901]	1	1	0.539140366037267	0.460859633962732	78	0	12	8	1	1	0.078280732074535	0
270	1	[409.79999999701977]	1	0	0.485954195141212	0.514045804858787	73	1	13	8	1	1	0.028091609717575	1
270	1	[610.0999999940395]	1	0	0.476610082208666	0.523389917791333	80	1	14	8	1	1	0.046779835582667	1
270	1	[725.0999999940395]	1	0	0.479176423821784	0.520823576178215	78	0	15	8	1	1	0.041647152356431	1
270	0	[595.6000000014901]	1	1	0.576965818351612	0.423034181648387	81	1	16	8	1	1	0.153931636703225	1
270	1	[586.7000000029802]	1	0	0.411594093688307	0.588405906311692	84	1	17	8	1	1	0.176811812623385	1
270	1	[538.6000000014901]	1	0	0.402126525242022	0.597873474757977	81	1	18	8	1	1	0.195746949515955	1
270	0	[938.8000000044703]	1	1	0.517964449018984	0.482035550981015	80	1	19	8	1	1	0.0359288980379689	1
270	0	[531.8999999985099]	1	1	0.547083310038599	0.4529166899614	18	0	20	8	1	1	0.094166620077199	1
270	0	[634.5]	1	0	0.467981111793342	0.532018888206657	76	0	21	8	1	1	0.064037776413315	0
270	1	[519.3999999985099]	1	1	0.564225762473149	0.43577423752685	84	0	22	8	1	1	0.128451524946299	0
270	1	[637.8999999985099]	1	0	0.416131104676114	0.583868895323885	79	1	23	8	1	1	0.167737790647771	1
270	1	[763.7999999970198]	1	1	0.50815492392312	0.491845076076879	76	0	24	8	1	1	0.016309847846241	0
270	0	[580.7999999970198]	1	1	0.549758234750032	0.450241765249967	27	0	25	8	1	1	0.099516469500065	1
270	1	[692.6999999955297]	3	0	0.0712611941810974	0.928738805818902	18	0	1	9	0	0	0.857477611637805	0
270	1	[604.0999999940395]	3	1	0.910583961001272	0.0894160389987279	79	0	2	9	0	0	0.821167922002544	1
270	0	[449.80000000447035]	3	1	0.91784791950003	0.0821520804999699	26	0	3	9	0	0	0.83569583900006	0
270	0	[580.7999999970198]	3	1	0.873743689543366	0.126256310456633	86	1	4	9	0	0	0.747487379086733	0
270	0	[524.7999999970198]	3	1	0.890882622907684	0.109117377092315	18	0	5	9	0	0	0.781765245815369	0
270	0	[376.79999999701977]	3	0	0.136733175412782	0.863266824587217	22	1	6	9	0	0	0.726533649174435	1
270	1	[508.8999999985099]	3	0	0.118573043508146	0.881426956491853	79	1	7	9	0	0	0.762853912983707	0
270	1	[438.09999999403954]	3	0	0.134345408082629	0.86565459191737	19	0	8	9	0	0	0.731309183834741	0
270	1	[458.5]	3	1	0.878468146198476	0.121531853801523	20	1	9	9	0	0	0.756936292396953	1
270	1	[451.80000000447035]	3	0	0.104095209644561	0.895904790355438	80	1	10	9	0	0	0.791809580710877	0
270	0	[465.3999999985099]	3	0	0.114371137615138	0.885628862384861	19	1	11	9	0	0	0.771257724769723	1
270	1	[579.8999999985099]	3	1	0.938917694104131	0.0610823058958686	19	1	12	9	0	0	0.877835388208262	1
270	1	[412.70000000298023]	3	0	0.0731806216872145	0.926819378312785	20	0	13	9	0	0	0.853638756625571	0
270	1	[322.70000000298023]	3	0	0.133994901922452	0.866005098077547	21	0	14	9	0	0	0.732010196155095	0
270	0	[527.6000000014901]	3	0	0.0740142442825908	0.925985755717409	20	1	15	9	0	0	0.851971511434818	1
270	1	[479.8999999985099]	3	1	0.921053390186516	0.0789466098134836	84	0	16	9	0	0	0.842106780373032	1
270	0	[519.5]	3	1	0.903763902245287	0.0962360977547124	26	0	17	9	0	0	0.807527804490575	0
270	1	[428.8999999985099]	3	1	0.87009923528878	0.12990076471122	18	1	18	9	0	0	0.74019847057756	1
270	0	[633.7999999970198]	3	0	0.0859398949351591	0.91406010506484	80	0	19	9	0	0	0.828120210129681	1
270	0	[528.5]	3	1	0.902531300907039	0.09746869909296	23	0	20	9	0	0	0.805062601814079	0
270	0	[516.1000000014901]	3	0	0.0746322500268268	0.925367749973173	19	1	21	9	0	0	0.850735499946346	1
270	0	[641.3999999985099]	3	1	0.863919301090652	0.136080698909347	20	0	22	9	0	0	0.727838602181305	0
270	0	[483.8999999985099]	3	1	0.918492122924757	0.0815078770752423	21	0	23	9	0	0	0.836984245849515	0
270	1	[504.8999999985099]	3	0	0.0673519447735737	0.932648055226426	19	0	24	9	0	0	0.865296110452852	0
270	1	[521.5]	3	1	0.9131846899925	0.086815310007499	81	0	25	9	0	0	0.826369379985001	1
270	1	[678]	1	0	0.497219623853424	0.502780376146575	25	0	1	10	1	0	0.00556075229315101	1
270	1	[570]	1	0	0.480978541721	0.519021458278999	25	1	2	10	1	0	0.038042916557999	1
270	0	[523.1999999955297]	1	1	0.570544940383033	0.429455059616966	20	1	3	10	1	0	0.141089880766067	1
270	0	[573.3999999985099]	1	1	0.54135568225914	0.458644317740859	14	1	4	10	1	0	0.082711364518281	1
270	0	[539.2000000029802]	1	1	0.560161939601923	0.439838060398076	84	0	5	10	1	0	0.120323879203847	1
270	0	[487.8999999985099]	1	0	0.417957697722498	0.582042302277501	77	1	6	10	1	0	0.164084604555003	0
270	1	[505.3999999985099]	1	1	0.568098891977282	0.431901108022717	19	0	7	10	1	0	0.136197783954565	0
270	0	[588.7000000029802]	1	1	0.525631019574986	0.474368980425013	80	0	8	10	1	0	0.051262039149973	1
270	1	[496]	1	1	0.558871823246325	0.441128176753674	19	0	9	10	1	0	0.117743646492651	0
270	0	[793.6000000014901]	1	1	0.501307878850455	0.498692121149544	22	1	10	10	1	0	0.00261575770091105	1
270	0	[577.7000000029802]	1	0	0.410398764137375	0.589601235862624	20	0	11	10	1	0	0.179202471725249	0
270	1	[572.2999999970198]	1	1	0.527862636678728	0.472137363321271	20	0	12	10	1	0	0.055725273357457	0
270	0	[736.6999999955297]	1	0	0.486565297856873	0.513434702143126	64	1	13	10	1	0	0.026869404286253	0
270	0	[507.80000000447035]	1	0	0.493031066139515	0.506968933860484	35	0	14	10	1	0	0.0139378677209691	0
270	1	[461.1000000014901]	1	1	0.50930768420808	0.490692315791919	26	0	15	10	1	0	0.018615368416161	0
270	1	[238.60000000149012]	1	0	0.497477495690977	0.502522504309022	67	1	16	10	1	0	0.00504500861804502	1
270	1	[517.5]	1	1	0.56985789968446	0.430142100315539	75	1	17	10	1	0	0.139715799368921	0
270	1	[517.0999999940395]	1	0	0.427979934820179	0.57202006517982	73	0	18	10	1	0	0.144040130359641	1
270	1	[590.5]	1	1	0.522217986620354	0.477782013379645	36	0	19	10	1	0	0.044435973240709	0
270	1	[578.4000000059605]	1	0	0.483457227558859	0.51654277244114	34	1	20	10	1	0	0.033085544882281	1
270	1	[502.5]	1	0	0.482060435383225	0.517939564616774	40	1	21	10	1	0	0.035879129233549	1
270	1	[456.69999999552965]	1	0	0.485056281786416	0.514943718213583	34	1	22	10	1	0	0.029887436427167	1
270	1	[359.70000000298023]	1	0	0.430589017642671	0.569410982357328	32	1	23	10	1	0	0.138821964714657	1
270	1	[336.20000000298023]	1	0	0.476045064132633	0.523954935867366	20	1	24	10	1	0	0.047909871734733	1
270	1	[327.69999999552965]	1	1	0.541634725335422	0.458365274664577	28	0	25	10	1	0	0.083269450670845	0
270	1	[576.9000000059605]	3	0	0.107685964499356	0.892314035500644	69	0	1	11	1	0	0.784628071001288	1
270	0	[605.7999999970198]	3	0	0.0945744836100938	0.905425516389906	24	0	2	11	1	0	0.810851032779812	0
270	0	[489.29999999701977]	3	1	0.934123196775144	0.0658768032248552	23	1	3	11	1	0	0.868246393550289	1
270	1	[409.20000000298023]	3	0	0.0665916628785442	0.933408337121455	72	0	4	11	1	0	0.866816674242911	1
270	0	[381.09999999403954]	3	1	0.940120686385212	0.0598793136147877	23	1	5	11	1	0	0.880241372770424	1
270	0	[325.6000000014901]	3	1	0.942681779040041	0.0573182209599585	77	0	6	11	1	0	0.885363558080082	1
270	1	[635.6999999955297]	3	0	0.127267894811095	0.872732105188904	22	1	7	11	1	0	0.745464210377809	1
270	1	[478.5]	3	0	0.145093498937383	0.854906501062616	77	0	8	11	1	0	0.709813002125233	1
270	0	[409.8999999985099]	3	0	0.111318504979005	0.888681495020994	25	0	9	11	1	0	0.777362990041989	0
270	0	[542.6999999955297]	3	1	0.935296231613027	0.0647037683869728	21	1	10	11	1	0	0.870592463226054	1
270	0	[339.79999999701977]	3	1	0.897970142794584	0.102029857205415	70	0	11	11	1	0	0.795940285589169	1
270	1	[463.3999999985099]	3	0	0.113293838622868	0.886706161377131	22	1	12	11	1	0	0.773412322754263	1
270	0	[467.8999999985099]	3	0	0.118284791244244	0.881715208755755	74	1	13	11	1	0	0.763430417511511	0
270	0	[568.8000000044703]	3	1	0.893587951516852	0.106412048483147	25	1	14	11	1	0	0.787175903033705	1
270	1	[574.7000000029802]	3	1	0.911182002629094	0.0888179973709056	22	0	15	11	1	0	0.822364005258188	0
270	0	[551.5]	3	1	0.943546511060991	0.0564534889390089	20	1	16	11	1	0	0.887093022121982	1
270	1	[506.69999999552965]	3	1	0.928864308923609	0.071135691076391	23	0	17	11	1	0	0.857728617847218	0
270	0	[509.19999999552965]	3	1	0.933545541180924	0.0664544588190751	76	0	18	11	1	0	0.867091082361849	1
270	1	[514.8000000044703]	3	0	0.0978191304221272	0.902180869577872	25	1	19	11	1	0	0.804361739155745	1
270	0	[515]	3	1	0.935578745073584	0.0644212549264153	21	1	20	11	1	0	0.871157490147169	1
270	0	[424.30000000447035]	3	1	0.889586660459746	0.110413339540253	21	1	21	11	1	0	0.779173320919493	1
270	1	[507.59999999403954]	3	0	0.0503623693567115	0.949637630643288	21	1	22	11	1	0	0.899275261286577	1
270	1	[465.8999999985099]	3	0	0.129774316098007	0.870225683901992	20	1	23	11	1	0	0.740451367803985	1
270	1	[435.30000000447035]	3	0	0.0971619809239052	0.902838019076094	17	1	24	11	1	0	0.805676038152189	1
270	0	[446.8999999985099]	3	1	0.896141740801226	0.103858259198773	81	0	25	11	1	0	0.792283481602453	1
270	1	[511.09999999403954]	2	0	0.490388122676933	0.509611877323066	28	0	1	12	0	1	0.019223754646133	0
270	1	[717]	2	1	0.533496963572128	0.466503036427871	80	1	2	12	0	1	0.0669939271442569	1
270	0	[483.6000000014901]	2	0	0.401257368252127	0.598742631747872	83	1	3	12	0	1	0.197485263495745	1
270	1	[728.3999999985099]	2	0	0.475236828177646	0.524763171822353	78	0	4	12	0	1	0.049526343644707	0
270	0	[530.3999999985099]	2	0	0.428901452309134	0.571098547690865	83	1	5	12	0	1	0.142197095381731	1
270	0	[520]	2	0	0.448858403621941	0.551141596378058	83	1	6	12	0	1	0.102283192756117	1
270	1	[512.4000000059605]	2	1	0.546432474357955	0.453567525642044	83	1	7	12	0	1	0.0928649487159109	1
270	1	[506.80000000447035]	2	1	0.599167084231167	0.400832915768832	81	1	8	12	0	1	0.198334168462335	1
270	0	[561.6000000014901]	2	0	0.47036712463602	0.529632875363979	79	1	9	12	0	1	0.059265750727959	1
270	0	[621.1999999955297]	2	0	0.496183738102117	0.503816261897882	79	1	10	12	0	1	0.00763252379576496	1
270	1	[505]	2	1	0.562339995687619	0.43766000431238	82	1	11	12	0	1	0.124679991375239	1
270	0	[636.5]	2	1	0.513350692926983	0.486649307073016	76	0	12	12	0	1	0.026701385853967	0
270	1	[527.1999999955297]	2	1	0.575611370623361	0.424388629376638	81	1	13	12	0	1	0.151222741246723	1
270	1	[557.9000000059605]	2	1	0.543351871393369	0.45664812860663	83	1	14	12	0	1	0.086703742786739	1
270	1	[507.6000000014901]	2	1	0.552938844679357	0.447061155320642	81	1	15	12	0	1	0.105877689358715	1
270	0	[567]	2	0	0.477165510363978	0.522834489636021	81	1	16	12	0	1	0.045668979272043	1
270	1	[781.6000000014901]	2	0	0.492005165364674	0.507994834635325	82	0	17	12	0	1	0.015989669270651	0
270	1	[665.3999999985099]	2	0	0.491237613911446	0.508762386088553	80	0	18	12	0	1	0.017524772177107	0
270	1	[551.6000000014901]	2	1	0.593854736646852	0.406145263353147	83	1	19	12	0	1	0.187709473293705	1
270	0	[534.9000000059605]	2	0	0.405414832571385	0.594585167428614	84	1	20	12	0	1	0.189170334857229	1
270	1	[586.8000000044703]	2	1	0.593668008703789	0.40633199129621	86	1	21	12	0	1	0.187336017407579	1
270	0	[460.8999999985099]	2	0	0.439917880489891	0.560082119510108	82	1	22	12	0	1	0.120164239020217	1
270	1	[510.3999999985099]	2	1	0.569233396312911	0.430766603687088	85	1	23	12	0	1	0.138466792625823	1
270	1	[513.3000000044703]	2	1	0.580448604887168	0.419551395112831	82	1	24	12	0	1	0.160897209774337	1
270	0	[477.6000000014901]	2	0	0.410208921456929	0.58979107854307	83	1	25	12	0	1	0.179582157086141	1
