ID	choice	rt	choice_cond	state	contrast_left	contrast_right	mu	correct	trials	blocks	contrast	congruence	con_diff_choice	ecoperf
247	0	[635.3000000119209]	3	0	0.129659683465975	0.870340316534025	74	1	1	1	0	1	0.74068063306805	1
247	0	[357.5]	3	0	0.0656015225339978	0.934398477466002	90	1	2	1	0	1	0.868796954932004	1
247	0	[307.5]	3	0	0.134167411710014	0.865832588289985	75	0	3	1	0	1	0.731665176579971	1
247	1	[347.7000000476837]	3	1	0.928979578368147	0.071020421631852	50	0	4	1	0	1	0.857959156736295	1
247	0	[364.10000002384186]	3	0	0.0986771867542986	0.901322813245701	74	1	5	1	0	1	0.802645626491402	1
247	0	[360.60000002384186]	3	0	0.0928625328042715	0.907137467195728	74	0	6	1	0	1	0.814274934391456	1
247	0	[353.5]	3	0	0.0944237634828718	0.905576236517128	75	1	7	1	0	1	0.811152473034256	1
247	1	[364.30000001192093]	3	1	0.918107005318137	0.0818929946818627	75	1	8	1	0	1	0.836214010636274	1
247	1	[353.10000002384186]	3	1	0.873363875047065	0.126636124952934	76	1	9	1	0	1	0.746727750094131	1
247	1	[369.30000001192093]	3	1	0.907939136111156	0.0920608638888436	75	1	10	1	0	1	0.815878272222312	1
247	0	[369.4000000357628]	3	0	0.0543867100484729	0.945613289951527	75	0	11	1	0	1	0.891226579903054	1
247	1	[424.89999997615814]	3	1	0.904657565973957	0.0953424340260421	75	1	12	1	0	1	0.809315131947915	1
247	0	[402.89999997615814]	3	0	0.133614055386659	0.86638594461334	75	1	13	1	0	1	0.732771889226681	1
247	0	[427.5]	3	0	0.124470876309392	0.875529123690607	75	0	14	1	0	1	0.751058247381215	1
247	1	[368.5]	3	1	0.853027205871997	0.146972794128002	75	1	15	1	0	1	0.706054411743995	1
247	0	[345.19999998807907]	3	0	0.123779320995262	0.876220679004737	74	1	16	1	0	1	0.752441358009475	1
247	1	[464.89999997615814]	3	1	0.936940805884335	0.063059194115664	76	0	17	1	0	1	0.873881611768671	1
247	0	[336.30000001192093]	3	1	0.854473190429097	0.145526809570902	73	0	18	1	0	1	0.708946380858195	0
247	1	[657.8999999761581]	3	1	0.888555356455938	0.111444643544061	76	1	19	1	0	1	0.777110712911877	1
247	0	[790]	3	0	0.0691845100774756	0.930815489922524	76	1	20	1	0	1	0.861630979845048	1
247	1	[368.9000000357628]	3	1	0.936469335060203	0.0635306649397967	75	0	21	1	0	1	0.872938670120406	1
247	0	[566.6999999880791]	3	0	0.108051460648975	0.891948539351024	75	1	22	1	0	1	0.783897078702049	1
247	0	[621.5]	3	0	0.096822038205118	0.903177961794881	76	1	23	1	0	1	0.806355923589763	1
247	1	[418.10000002384186]	3	1	0.927985944081865	0.0720140559181349	76	1	24	1	0	1	0.85597188816373	1
247	1	[352.60000002384186]	3	1	0.875543367169636	0.124456632830363	75	0	25	1	0	1	0.751086734339273	1
247	1	[863.8999999761581]	2	1	0.530512532762534	0.469487467237465	50	0	1	2	1	0	0.061025065525069	0
247	1	[803.1999999880791]	2	1	0.528253457862862	0.471746542137137	50	0	2	2	1	0	0.056506915725725	0
247	0	[714]	2	0	0.449468439487691	0.550531560512308	50	0	3	2	1	0	0.101063121024617	0
247	0	[682.2000000476837]	2	0	0.465013391552334	0.534986608447665	38	0	4	2	1	0	0.069973216895331	0
247	0	[728.9000000357628]	2	1	0.537046653316433	0.462953346683566	25	1	5	2	1	0	0.074093306632867	1
247	0	[618.5]	2	1	0.55872505227739	0.441274947722609	16	1	6	2	1	0	0.117450104554781	1
247	0	[625.8999999761581]	2	0	0.498357559815919	0.50164244018408	23	0	7	2	1	0	0.00328488036816099	0
247	0	[761.5]	2	1	0.518192286479853	0.481807713520146	23	1	8	2	1	0	0.036384572959707	1
247	1	[665.3000000119209]	2	0	0.458686009207667	0.541313990792332	23	1	9	2	1	0	0.082627981584665	1
247	1	[701.0999999642372]	2	0	0.456981958888701	0.543018041111298	22	1	10	2	1	0	0.086036082222597	1
247	1	[554.1000000238419]	2	0	0.496711980573115	0.503288019426885	0	1	11	2	1	0	0.00657603885376995	1
247	0	[442.5]	2	1	0.525119675976161	0.474880324023838	0	1	12	2	1	0	0.050239351952323	1
247	0	[546.8000000119209]	2	1	0.534144102069639	0.465855897930361	0	1	13	2	1	0	0.0682882041392781	1
247	1	[433.5999999642372]	2	0	0.406086589055871	0.593913410944128	0	1	14	2	1	0	0.187826821888257	1
247	0	[503.9000000357628]	2	1	0.544551887127806	0.455448112872193	0	1	15	2	1	0	0.089103774255613	1
247	1	[685.1000000238419]	2	0	0.414952485070911	0.585047514929088	0	1	16	2	1	0	0.170095029858177	1
247	1	[458.30000001192093]	2	0	0.41360593394459	0.586394066055409	0	1	17	2	1	0	0.172788132110819	1
247	1	[474.10000002384186]	2	0	0.491346572958613	0.508653427041386	0	1	18	2	1	0	0.017306854082773	1
247	1	[480.69999998807907]	2	0	0.423958575276119	0.57604142472388	0	1	19	2	1	0	0.152082849447761	1
247	1	[504.0999999642372]	2	0	0.459347704210797	0.540652295789202	0	1	20	2	1	0	0.081304591578405	1
247	0	[408.5999999642372]	2	1	0.58997903228221	0.410020967717789	0	1	21	2	1	0	0.179958064564421	1
247	0	[441.30000001192093]	2	1	0.502188985989072	0.497811014010927	0	1	22	2	1	0	0.00437797197814505	1
247	1	[377.19999998807907]	2	0	0.444154734294617	0.555845265705383	0	1	23	2	1	0	0.111690531410766	1
247	0	[697.0999999642372]	2	1	0.507377223970464	0.492622776029535	0	1	24	2	1	0	0.014754447940929	1
247	0	[538]	2	1	0.529693025560677	0.470306974439322	0	0	25	2	1	0	0.059386051121355	1
247	0	[585.7999999523163]	2	1	0.525565440270595	0.474434559729404	50	0	1	3	0	0	0.051130880541191	0
247	1	[449]	2	0	0.408092658298868	0.591907341701131	22	0	2	3	0	0	0.183814683402263	0
247	0	[440.39999997615814]	2	1	0.585751194425533	0.414248805574466	21	0	3	3	0	0	0.171502388851067	0
247	0	[768.1000000238419]	2	0	0.476457417595014	0.523542582404985	0	1	4	3	0	0	0.047085164809971	1
247	0	[860.9000000357628]	2	0	0.483763275217245	0.516236724782754	0	1	5	3	0	0	0.032473449565509	1
247	0	[416.80000001192093]	2	0	0.403361393385942	0.596638606614057	0	1	6	3	0	0	0.193277213228115	1
247	1	[433.19999998807907]	2	1	0.526376326262908	0.473623673737091	0	1	7	3	0	0	0.052752652525817	1
247	0	[409.5]	2	0	0.44598325782729	0.554016742172709	0	1	8	3	0	0	0.108033484345419	1
247	0	[512.5]	2	0	0.456124254764272	0.543875745235727	0	1	9	3	0	0	0.087751490471455	1
247	0	[416.7000000476837]	2	0	0.438790531146468	0.561209468853531	0	1	10	3	0	0	0.122418937707063	1
247	1	[680.1999999880791]	2	0	0.493894244578889	0.50610575542111	0	0	11	3	0	0	0.0122115108422211	0
247	1	[455.60000002384186]	2	1	0.50239549377928	0.497604506220719	0	1	12	3	0	0	0.00479098755856094	1
247	1	[513.5]	2	1	0.553958840665058	0.446041159334941	0	1	13	3	0	0	0.107917681330117	1
247	0	[440.5]	2	0	0.462695470140724	0.537304529859275	0	1	14	3	0	0	0.074609059718551	1
247	1	[392.80000001192093]	2	1	0.564051455694922	0.435948544305077	0	1	15	3	0	0	0.128102911389845	1
247	1	[417.60000002384186]	2	1	0.542939441584907	0.457060558415092	0	1	16	3	0	0	0.085878883169815	1
247	1	[448.9000000357628]	2	1	0.531717164774869	0.46828283522513	0	1	17	3	0	0	0.063434329549739	1
247	1	[778.4000000357628]	2	1	0.55519187085237	0.444808129147629	0	1	18	3	0	0	0.110383741704741	1
247	0	[466.2999999523163]	2	0	0.454907206490896	0.545092793509103	0	1	19	3	0	0	0.090185587018207	1
247	0	[438.89999997615814]	2	0	0.417887582446514	0.582112417553485	0	1	20	3	0	0	0.164224835106971	1
247	0	[457.30000001192093]	2	0	0.471465147645725	0.528534852354274	0	1	21	3	0	0	0.057069704708549	1
247	0	[433.10000002384186]	2	0	0.431039462439344	0.568960537560655	0	1	22	3	0	0	0.137921075121311	1
247	1	[354.30000001192093]	2	1	0.583054246618747	0.416945753381252	0	1	23	3	0	0	0.166108493237495	1
247	1	[457.39999997615814]	2	1	0.564519444050404	0.435480555949595	0	1	24	3	0	0	0.129038888100809	1
247	1	[400.39999997615814]	2	1	0.507783781251458	0.492216218748541	0	0	25	3	0	0	0.015567562502917	1
247	1	[401.39999997615814]	3	0	0.110162986909858	0.889837013090141	50	0	1	4	1	0	0.779674026180283	1
247	0	[417]	3	0	0.126929842891288	0.873070157108711	50	0	2	4	1	0	0.746140314217423	0
247	1	[345.0999999642372]	3	1	0.866326969453247	0.133673030546752	50	0	3	4	1	0	0.732653938906495	0
247	0	[359.39999997615814]	3	1	0.875974782521749	0.12402521747825	0	1	4	4	1	0	0.751949565043499	1
247	1	[585]	3	0	0.0765133399714856	0.923486660028514	0	1	5	4	1	0	0.846973320057028	1
247	1	[336.39999997615814]	3	0	0.133307466883977	0.866692533116022	0	1	6	4	1	0	0.733385066232045	1
247	0	[321.30000001192093]	3	1	0.936657432247774	0.0633425677522253	0	0	7	4	1	0	0.873314864495549	1
247	1	[304.7999999523163]	3	0	0.115184505949744	0.884815494050255	0	1	8	4	1	0	0.769630988100511	1
247	1	[634.1999999880791]	3	0	0.114492951243782	0.885507048756217	0	1	9	4	1	0	0.771014097512435	1
247	1	[337.10000002384186]	3	0	0.102024466121571	0.897975533878428	0	0	10	4	1	0	0.795951067756857	1
247	0	[368]	3	1	0.931471060991333	0.068528939008667	0	1	11	4	1	0	0.862942121982666	1
247	0	[441.19999998807907]	3	1	0.947981937947637	0.0520180620523622	0	0	12	4	1	0	0.895963875895275	1
247	1	[301.10000002384186]	3	0	0.103869529237696	0.896130470762303	0	1	13	4	1	0	0.792260941524607	1
247	1	[433]	3	0	0.137489911019614	0.862510088980385	0	1	14	4	1	0	0.725020177960771	1
247	0	[338.69999998807907]	3	1	0.869011418833899	0.1309885811661	0	1	15	4	1	0	0.738022837667799	1
247	0	[735.6999999880791]	3	1	0.892905527470582	0.107094472529417	0	0	16	4	1	0	0.785811054941165	1
247	0	[353.30000001192093]	3	1	0.865630381810191	0.134369618189808	0	1	17	4	1	0	0.731260763620383	1
247	0	[322.80000001192093]	3	1	0.859714476626561	0.140285523373438	0	0	18	4	1	0	0.719428953253123	1
247	0	[344.69999998807907]	3	1	0.910791023610708	0.0892089763892916	0	1	19	4	1	0	0.821582047221416	1
247	0	[383.80000001192093]	3	1	0.88838890647616	0.111611093523839	0	1	20	4	1	0	0.776777812952321	1
247	1	[368.2999999523163]	3	0	0.110464362948389	0.88953563705161	0	0	21	4	1	0	0.779071274103221	1
247	1	[504.69999998807907]	3	0	0.113761631944691	0.886238368055308	0	1	22	4	1	0	0.772476736110617	1
247	0	[672.9000000357628]	3	1	0.947793981603423	0.0522060183965769	0	1	23	4	1	0	0.895587963206846	1
247	1	[353]	3	0	0.0605212481487862	0.939478751851213	0	0	24	4	1	0	0.878957503702427	1
247	0	[330]	3	1	0.902787964399267	0.0972120356007326	0	1	25	4	1	0	0.805575928798534	1
247	0	[681.1999999880791]	2	0	0.417338826245479	0.58266117375452	77	1	1	5	0	1	0.165322347509041	1
247	1	[465.4000000357628]	2	1	0.546871276163646	0.453128723836353	88	1	2	5	0	1	0.0937425523272929	1
247	1	[632.5]	2	1	0.510734954518156	0.489265045481843	88	1	3	5	0	1	0.021469909036313	1
247	0	[400.39999997615814]	2	0	0.449988962127508	0.550011037872491	100	1	4	5	0	1	0.100022075744983	1
247	1	[439.60000002384186]	2	1	0.554106341954426	0.445893658045573	100	1	5	5	0	1	0.108212683908853	1
247	0	[665.5]	2	0	0.458125738879396	0.541874261120603	100	1	6	5	0	1	0.083748522241207	1
247	1	[464.69999998807907]	2	1	0.543999164501506	0.456000835498493	100	1	7	5	0	1	0.087998329003013	1
247	0	[366.89999997615814]	2	0	0.43306150067608	0.566938499323919	100	1	8	5	0	1	0.133876998647839	1
247	0	[421.2000000476837]	2	0	0.49005515289227	0.509944847107729	100	1	9	5	0	1	0.0198896942154591	1
247	1	[463.69999998807907]	2	1	0.540937791526994	0.459062208473005	100	1	10	5	0	1	0.081875583053989	1
247	0	[656.8000000119209]	2	0	0.47784319263908	0.522156807360919	100	1	11	5	0	1	0.044313614721839	1
247	1	[633.6999999880791]	2	1	0.525051533415216	0.474948466584783	100	1	12	5	0	1	0.050103066830433	1
247	0	[413]	2	0	0.412740011884964	0.587259988115035	100	1	13	5	0	1	0.174519976230071	1
247	1	[625.3000000119209]	2	1	0.523036984832511	0.476963015167488	100	1	14	5	0	1	0.046073969665023	1
247	0	[418.80000001192093]	2	0	0.481691500761006	0.518308499238993	100	1	15	5	0	1	0.0366169984779871	1
247	0	[413]	2	0	0.427106496469161	0.572893503530838	100	1	16	5	0	1	0.145787007061677	1
247	0	[567.6000000238419]	2	0	0.43456887957774	0.56543112042226	100	1	17	5	0	1	0.13086224084452	1
247	0	[320.39999997615814]	2	0	0.403476525377097	0.596523474622902	100	1	18	5	0	1	0.193046949245805	1
247	0	[369.39999997615814]	2	0	0.454395721659512	0.545604278340488	100	1	19	5	0	1	0.091208556680976	1
247	1	[519.2000000476837]	2	1	0.547294664136621	0.452705335863378	100	1	20	5	0	1	0.094589328273243	1
247	1	[498.2000000476837]	2	1	0.546340400210849	0.45365959978915	100	1	21	5	0	1	0.092680800421699	1
247	1	[458.0999999642372]	2	1	0.580949177185008	0.419050822814991	100	1	22	5	0	1	0.161898354370017	1
247	0	[351.80000001192093]	2	0	0.457622608865072	0.542377391134928	100	1	23	5	0	1	0.084754782269856	1
247	1	[507.30000001192093]	2	1	0.51729182531074	0.482708174689259	100	1	24	5	0	1	0.0345836506214811	1
247	1	[754.4000000357628]	2	1	0.518550326912718	0.481449673087281	100	0	25	5	0	1	0.037100653825437	1
247	0	[424.2000000476837]	1	1	0.589119650405278	0.410880349594721	24	1	1	6	0	1	0.178239300810557	0
247	1	[410.69999998807907]	1	0	0.439175345941786	0.560824654058213	50	0	2	6	0	1	0.121649308116427	0
247	0	[617]	1	1	0.564347030447737	0.435652969552262	50	0	3	6	0	1	0.128694060895475	0
247	0	[640.8999999761581]	1	0	0.478905785505115	0.521094214494884	75	1	4	6	0	1	0.042188428989769	1
247	1	[417.5]	1	1	0.539923656519683	0.460076343480316	85	1	5	6	0	1	0.079847313039367	1
247	0	[593.3000000119209]	1	0	0.497233502153774	0.502766497846226	76	0	6	6	0	1	0.00553299569245197	1
247	0	[416.60000002384186]	1	0	0.471879841707015	0.528120158292984	86	1	7	6	0	1	0.056240316585969	1
247	1	[424.10000002384186]	1	1	0.550485536541928	0.449514463458071	85	1	8	6	0	1	0.100971073083857	1
247	0	[569.3999999761581]	1	0	0.492701504585756	0.507298495414243	86	0	9	6	0	1	0.014596990828487	1
247	0	[428.10000002384186]	1	0	0.426065731443899	0.573934268556101	86	1	10	6	0	1	0.147868537112202	1
247	0	[578]	1	0	0.410769767468811	0.589230232531188	86	0	11	6	0	1	0.178460465062377	1
247	0	[424.30000001192093]	1	1	0.516670053616085	0.483329946383914	85	0	12	6	0	1	0.033340107232171	0
247	1	[418.39999997615814]	1	1	0.566896147769857	0.433103852230142	85	1	13	6	0	1	0.133792295539715	1
247	1	[435.0999999642372]	1	1	0.560493112876685	0.439506887123314	86	0	14	6	0	1	0.120986225753371	1
247	1	[488.69999998807907]	1	1	0.545090857285581	0.454909142714418	84	1	15	6	0	1	0.090181714571163	1
247	0	[407.89999997615814]	1	0	0.485364153386454	0.514635846613545	87	1	16	6	0	1	0.029271693227091	1
247	0	[488.5]	1	0	0.481102423671452	0.518897576328547	87	0	17	6	0	1	0.037795152657095	1
247	0	[407.80000001192093]	1	0	0.469442387149821	0.530557612850178	86	1	18	6	0	1	0.061115225700357	1
247	1	[464.69999998807907]	1	1	0.537392510561627	0.462607489438372	87	1	19	6	0	1	0.074785021123255	1
247	1	[459.4000000357628]	1	1	0.565587190240878	0.434412809759121	90	0	20	6	0	1	0.131174380481757	1
247	0	[405.5999999642372]	1	0	0.492308999042401	0.507691000957599	100	1	21	6	0	1	0.015382001915198	1
247	0	[400.9000000357628]	1	0	0.430957722892487	0.569042277107512	100	1	22	6	0	1	0.138084554215025	1
247	1	[425.89999997615814]	1	1	0.533082997414522	0.466917002585478	100	1	23	6	0	1	0.066165994829044	1
247	0	[520.6999999880791]	1	0	0.462809940950344	0.537190059049655	100	1	24	6	0	1	0.074380118099311	1
247	1	[339]	1	1	0.532658405968893	0.467341594031106	76	0	25	6	0	1	0.065316811937787	1
247	1	[368.30000001192093]	3	0	0.130731907273335	0.869268092726664	50	0	1	7	0	0	0.738536185453329	0
247	0	[378]	3	1	0.886728663656624	0.113271336343375	75	1	2	7	0	0	0.773457327313249	0
247	1	[320.89999997615814]	3	0	0.0890631789651144	0.910936821034885	74	0	3	7	0	0	0.821873642069771	0
247	0	[314.89999997615814]	3	1	0.940621898974476	0.0593781010255238	75	0	4	7	0	0	0.881243797948952	0
247	1	[513.4000000357628]	3	0	0.131140950893551	0.868859049106448	76	1	5	7	0	0	0.737718098212897	0
247	0	[376.10000002384186]	3	1	0.925359140740732	0.074640859259268	76	0	6	7	0	0	0.850718281481464	0
247	0	[772.6000000238419]	3	1	0.880387428523936	0.119612571476063	70	0	7	7	0	0	0.760774857047873	0
247	0	[345.5]	3	1	0.905000472158408	0.0949995278415913	75	0	8	7	0	0	0.810000944316817	0
247	1	[377.0999999642372]	3	0	0.0582663992504873	0.941733600749512	73	0	9	7	0	0	0.883467201499025	0
247	0	[641.0999999642372]	3	1	0.948260228449355	0.051739771550645	63	0	10	7	0	0	0.89652045689871	0
247	1	[311]	3	0	0.116196266181339	0.88380373381866	70	1	11	7	0	0	0.767607467637321	0
247	1	[416.60000002384186]	3	0	0.101303622949455	0.898696377050545	75	0	12	7	0	0	0.79739275410109	0
247	0	[529.6999999880791]	3	1	0.925555538167137	0.074444461832863	76	1	13	7	0	0	0.851111076334274	0
247	1	[369.30000001192093]	3	0	0.09873512084476	0.90126487915524	75	1	14	7	0	0	0.80252975831048	0
247	1	[408.5]	3	0	0.126242273976347	0.873757726023652	67	0	15	7	0	0	0.747515452047305	0
247	1	[313.9000000357628]	3	0	0.124532210879282	0.875467789120717	75	1	16	7	0	0	0.750935578241435	0
247	1	[321.89999997615814]	3	0	0.128675719562233	0.871324280437766	68	0	17	7	0	0	0.742648560875533	0
247	0	[552.8000000119209]	3	1	0.947213406091118	0.0527865939088815	67	0	18	7	0	0	0.894426812182237	0
247	1	[271.39999997615814]	3	0	0.0555157214250335	0.944484278574966	63	0	19	7	0	0	0.888968557149933	0
247	1	[363.69999998807907]	3	0	0.12468819962539	0.875311800374609	64	0	20	7	0	0	0.750623600749219	0
247	0	[360.5999999642372]	3	0	0.106255294437551	0.893744705562448	50	1	21	7	0	0	0.787489411124897	1
247	1	[354.39999997615814]	3	1	0.939771554380497	0.0602284456195029	47	1	22	7	0	0	0.879543108760994	1
247	1	[385.69999998807907]	3	1	0.910567962325556	0.0894320376744439	50	0	23	7	0	0	0.821135924651112	1
247	0	[354.2999999523163]	3	1	0.944428534031963	0.0555714659680361	50	0	24	7	0	0	0.888857068063927	0
247	1	[370.2999999523163]	3	1	0.935967096250202	0.0640329037497972	50	0	25	7	0	0	0.871934192500405	1
247	0	[984.6999999880791]	3	1	0.904439935352499	0.0955600646475002	75	1	1	8	1	1	0.808879870704999	1
247	1	[432.89999997615814]	3	0	0.141002473967862	0.858997526032137	75	0	2	8	1	1	0.717995052064275	1
247	0	[305.0999999642372]	3	1	0.946359653259573	0.0536403467404263	75	1	3	8	1	1	0.892719306519147	1
247	0	[449.10000002384186]	3	1	0.87326909479608	0.126730905203919	75	0	4	8	1	1	0.746538189592161	1
247	0	[330.30000001192093]	3	1	0.909957615484442	0.0900423845155576	76	1	5	8	1	1	0.819915230968884	1
247	0	[465.39999997615814]	3	1	0.888075909185372	0.111924090814628	69	0	6	8	1	1	0.776151818370744	1
247	1	[363.39999997615814]	3	0	0.124471250485244	0.875528749514755	83	1	7	8	1	1	0.751057499029511	1
247	1	[432.60000002384186]	3	0	0.116890054423385	0.883109945576614	84	1	8	8	1	1	0.766219891153229	1
247	1	[728]	3	0	0.134609529981721	0.865390470018278	85	1	9	8	1	1	0.730780940036557	1
247	0	[720.5]	3	1	0.891733442058776	0.108266557941223	73	1	10	8	1	1	0.783466884117553	1
247	0	[694.6999999880791]	3	1	0.874515178691599	0.1254848213084	69	0	11	8	1	1	0.749030357383199	1
247	1	[798.6000000238419]	3	0	0.0558295669460005	0.944170433053999	69	1	12	8	1	1	0.888340866107998	1
247	1	[648.1999999880791]	3	0	0.0568919261707922	0.943108073829207	68	0	13	8	1	1	0.886216147658415	1
247	1	[660.6999999880791]	3	0	0.115511020691613	0.884488979308386	72	1	14	8	1	1	0.768977958616773	1
247	1	[675.7999999523163]	3	0	0.0603542765865088	0.939645723413491	74	1	15	8	1	1	0.879291446826982	1
247	0	[568.1000000238419]	3	1	0.897048411018739	0.10295158898126	60	0	16	8	1	1	0.794096822037479	1
247	1	[983.3999999761581]	3	0	0.138804406004516	0.861195593995483	60	0	17	8	1	1	0.722391187990967	1
247	0	[862]	3	1	0.868372114942652	0.131627885057348	63	1	18	8	1	1	0.736744229885304	1
247	1	[737.3999999761581]	3	0	0.146666899098177	0.853333100901822	74	1	19	8	1	1	0.706666201803645	1
247	1	[597.8000000119209]	3	0	0.0531304337310108	0.946869566268989	65	0	20	8	1	1	0.893739132537978	1
247	0	[603.5]	3	1	0.913718955051937	0.0862810449480627	69	1	21	8	1	1	0.827437910103874	1
247	1	[929.1999999880791]	3	0	0.115487886067993	0.884512113932006	70	1	22	8	1	1	0.769024227864013	1
247	0	[849.2999999523163]	3	1	0.906652624427648	0.0933473755723511	73	1	23	8	1	1	0.813305248855297	1
247	1	[687.1999999880791]	3	0	0.0912997377160825	0.908700262283917	66	0	24	8	1	1	0.817400524567835	1
247	0	[889.0999999642372]	3	1	0.920612095334277	0.0793879046657224	72	0	25	8	1	1	0.841224190668555	1
247	0	[732.1999999880791]	1	1	0.541855544687189	0.45814445531281	43	0	1	9	1	0	0.083711089374379	1
247	0	[916.1000000238419]	1	0	0.415349431804207	0.584650568195792	59	1	2	9	1	0	0.169301136391585	0
247	0	[931.1999999880791]	1	0	0.451204655294766	0.548795344705233	58	0	3	9	1	0	0.0975906894104669	0
247	1	[756.6999999880791]	1	1	0.515759591140167	0.484240408859832	62	0	4	9	1	0	0.031519182280335	0
247	0	[990.7000000476837]	1	0	0.483984232289511	0.516015767710488	54	0	5	9	1	0	0.032031535420977	0
247	1	[852]	1	0	0.418252060567835	0.581747939432164	54	1	6	9	1	0	0.163495878864329	1
247	1	[722.5]	1	0	0.408041249812929	0.59195875018707	61	1	7	9	1	0	0.183917500374141	1
247	1	[878.6999999880791]	1	0	0.43509353864842	0.564906461351579	50	0	8	9	1	0	0.129812922703159	1
247	1	[874.8999999761581]	1	0	0.423004442064684	0.576995557935315	50	1	9	9	1	0	0.153991115870631	1
247	0	[820.8999999761581]	1	0	0.416211596629461	0.583788403370538	44	0	10	9	1	0	0.167576806741077	0
247	0	[778.8000000119209]	1	1	0.538058059757518	0.461941940242481	51	0	11	9	1	0	0.076116119515037	1
247	0	[643.3999999761581]	1	1	0.528629699251841	0.471370300748158	52	0	12	9	1	0	0.057259398503683	1
247	1	[596.9000000357628]	1	1	0.550685547166232	0.449314452833767	46	0	13	9	1	0	0.101371094332465	0
247	1	[781.3999999761581]	1	0	0.434150369460832	0.565849630539167	46	0	14	9	1	0	0.131699261078335	1
247	1	[757.5]	1	0	0.470281093068216	0.529718906931783	56	1	15	9	1	0	0.059437813863567	1
247	0	[602.0999999642372]	1	1	0.501893983798604	0.498106016201395	48	0	16	9	1	0	0.00378796759720895	1
247	1	[579]	1	1	0.578579598577175	0.421420401422824	55	0	17	9	1	0	0.157159197154351	0
247	0	[953.5]	1	0	0.418897986298597	0.581102013701402	52	1	18	9	1	0	0.162204027402805	0
247	1	[719.3999999761581]	1	1	0.534262391133115	0.465737608866884	48	0	19	9	1	0	0.068524782266231	0
247	0	[575.8000000119209]	1	1	0.55315055771612	0.446849442283879	55	1	20	9	1	0	0.106301115432241	1
247	1	[973.6999999880791]	1	0	0.475749899367945	0.524250100632054	54	1	21	9	1	0	0.048500201264109	1
247	0	[859]	1	1	0.511214325949202	0.488785674050797	63	0	22	9	1	0	0.022428651898405	1
247	1	[537.3000000119209]	1	1	0.589995129963115	0.410004870036884	50	0	23	9	1	0	0.179990259926231	0
247	1	[498.30000001192093]	1	0	0.497643272469793	0.502356727530206	52	0	24	9	1	0	0.00471345506041299	1
247	0	[526.6000000238419]	1	1	0.50849745707475	0.491502542925249	55	0	25	9	1	0	0.0169949141495011	1
247	0	[709.3000000119209]	1	1	0.577588522131516	0.422411477868483	57	1	1	10	1	1	0.155177044263033	1
247	1	[773.8999999761581]	1	1	0.517568184095962	0.482431815904037	55	1	2	10	1	1	0.0351363681919249	0
247	0	[789.0999999642372]	1	1	0.596156920326762	0.403843079673237	53	1	3	10	1	1	0.192313840653525	1
247	1	[636.1000000238419]	1	0	0.41017658416479	0.589823415835209	NaN	0	4	10	1	1	0.179646831670419	1
247	1	[244.0999999642372,636.2999999523163]	1	1	0.573984340636914	0.426015659363086	56	1	5	10	1	1	0.147968681273828	0
247	0	[460.7999999523163,851.1999999880791]	1	1	0.513348418720015	0.486651581279984	66	1	6	10	1	1	0.026696837440031	1
247	0	[20.30000001192093,373.39999997615814,813.5]	1	0	0.413152584381446	0.586847415618553	55	0	7	10	1	1	0.173694831237107	0
247	0	[527]	1	1	0.594474899133769	0.40552510086623	38	0	8	10	1	1	0.188949798267539	1
247	1	[45.90000003576279,364.80000001192093,724.9000000357628]	1	1	0.573572056561711	0.426427943438288	61	0	9	10	1	1	0.147144113123423	0
247	1	[223.5,480.7000000476837,751,991.2000000476837]	1	1	0.50382868369601	0.496171316303989	55	1	10	10	1	1	0.007657367392021	0
247	0	[449]	1	1	0.586246233124809	0.41375376687519	40	1	11	10	1	1	0.172492466249619	1
247	1	[480.80000001192093]	1	0	0.470342044582554	0.529657955417445	58	1	12	10	1	1	0.059315910834891	1
247	0	[478.69999998807907]	1	0	0.462103282946416	0.537896717053583	45	0	13	10	1	1	0.075793434107167	0
247	1	[558.6999999880791]	1	0	0.405016531339954	0.594983468660045	NaN	1	14	10	1	1	0.189966937320091	1
247	0	[33.40000003576279,752.9000000357628]	1	1	0.595834188512173	0.404165811487827	57	1	15	10	1	1	0.191668377024346	1
247	1	[571.7000000476837]	1	1	0.546767408318424	0.453232591681575	45	0	16	10	1	1	0.093534816636849	0
247	1	[633.8000000119209]	1	0	0.464025594342644	0.535974405657355	46	1	17	10	1	1	0.071948811314711	1
247	0	[116.30000001192093]	1	0	0.487827668163958	0.512172331836041	53	1	18	10	1	1	0.024344663672083	0
247	1	[631.8999999761581]	1	0	0.485505267476916	0.514494732523083	59	1	19	10	1	1	0.028989465046167	1
247	0	[475.9000000357628]	1	0	0.421359424250562	0.578640575749437	61	1	20	10	1	1	0.157281151498875	0
247	1	[264.30000001192093,502.39999997615814]	1	0	0.478166684088435	0.521833315911564	40	0	21	10	1	1	0.043666631823129	1
247	0	[584.5]	1	1	0.594896066855042	0.405103933144957	59	0	22	10	1	1	0.189792133710085	1
247	1	[504.7000000476837]	1	1	0.555879048785234	0.444120951214765	42	0	23	10	1	1	0.111758097570469	0
247	1	[359.30000001192093]	1	0	0.495125768025927	0.504874231974072	44	0	24	10	1	1	0.00974846394814499	1
247	0	[621.8999999761581]	1	0	0.428245264915529	0.57175473508447	58	0	25	10	1	1	0.143509470168941	0
247	1	[488.10000002384186]	2	0	0.407741566475309	0.59225843352469	54	1	1	11	1	1	0.184516867049381	1
247	1	[583.1999999880791]	2	0	0.453767862979813	0.546232137020186	67	1	2	11	1	1	0.0924642740403731	1
247	0	[877.8000000119209]	2	1	0.567308833740211	0.432691166259788	57	1	3	11	1	1	0.134617667480423	1
247	1	[855.6999999880791]	2	0	0.478254675015003	0.521745324984996	45	1	4	11	1	1	0.043490649969993	1
247	1	[609.5999999642372]	2	0	0.468157336599115	0.531842663400884	61	1	5	11	1	1	0.063685326801769	1
247	1	[541.8000000119209]	2	1	0.517542699481344	0.482457300518655	45	0	6	11	1	1	0.035085398962689	0
247	1	[655.1000000238419]	2	0	0.465812458606117	0.534187541393882	64	1	7	11	1	1	0.0683750827877651	1
247	1	[795]	2	0	0.432951481443274	0.567048518556725	78	1	8	11	1	1	0.134097037113451	1
247	1	[605]	2	0	0.428907834134423	0.571092165865576	85	1	9	11	1	1	0.142184331731153	1
247	0	[517.8999999761581]	2	1	0.520733203519493	0.479266796480506	55	1	10	11	1	1	0.041466407038987	1
247	0	[462.19999998807907]	2	0	0.491881568177815	0.508118431822185	60	0	11	11	1	1	0.01623686364437	0
247	1	[577.1999999880791]	2	1	0.544744642669594	0.455255357330405	55	0	12	11	1	1	0.089489285339189	0
247	1	[631.3999999761581]	2	0	0.423279972474273	0.576720027525726	71	1	13	11	1	1	0.153440055051453	1
247	1	[745.3000000119209]	2	1	0.500713482906695	0.499286517093304	52	0	14	11	1	1	0.00142696581339102	0
247	0	[545.8000000119209]	2	1	0.583737908866386	0.416262091133614	66	1	15	11	1	1	0.167475817732772	1
247	1	[643.0999999642372]	2	0	0.484863639567214	0.515136360432785	60	1	16	11	1	1	0.030272720865571	1
247	1	[607]	2	0	0.468372078243931	0.531627921756068	77	1	17	11	1	1	0.063255843512137	1
247	0	[511.5]	2	1	0.592694301671229	0.40730569832877	70	1	18	11	1	1	0.185388603342459	1
247	1	[692.3000000119209]	2	1	0.500477460189127	0.499522539810873	55	0	19	11	1	1	0.000954920378253954	0
247	0	[644.5]	2	1	0.573338393484972	0.426661606515028	61	1	20	11	1	1	0.146676786969944	1
247	1	[758.9000000357628]	2	1	0.524838644502227	0.475161355497772	47	0	21	11	1	1	0.0496772890044549	0
247	1	[520.5999999642372]	2	0	0.414354904023399	0.5856450959766	61	1	22	11	1	1	0.171290191953201	1
247	0	[592.1999999880791]	2	1	0.540002030008752	0.459997969991247	66	1	23	11	1	1	0.080004060017505	1
247	0	[476.19999998807907]	2	1	0.564496277634405	0.435503722365594	59	1	24	11	1	1	0.128992555268811	1
247	0	[859.8000000119209]	2	1	0.585611643041821	0.414388356958178	67	0	25	11	1	1	0.171223286083643	1
247	0	[637.8999999761581]	1	1	0.561284664244287	0.438715335755712	44	1	1	12	0	0	0.122569328488575	0
247	0	[903.1999999880791]	1	1	0.512952402888959	0.48704759711104	53	0	2	12	0	0	0.025904805777919	0
247	1	[437.39999997615814]	1	0	0.486939792491371	0.513060207508628	55	0	3	12	0	0	0.026120415017257	0
247	0	[621.8000000119209]	1	1	0.592351258724293	0.407648741275706	48	0	4	12	0	0	0.184702517448587	0
247	0	[665]	1	0	0.458164806948744	0.541835193051255	43	1	5	12	0	0	0.083670386102511	1
247	0	[653.0999999642372]	1	0	0.447910940748152	0.552089059251847	56	0	6	12	0	0	0.104178118503695	1
247	1	[583.8000000119209]	1	0	0.435076412164894	0.564923587835105	47	0	7	12	0	0	0.129847175670211	0
247	0	[411.19999998807907]	1	0	0.49125998964545	0.508740010354549	59	0	8	12	0	0	0.017480020709099	1
247	1	[39.30000001192093,359,742.9000000357628]	1	0	0.406990106476378	0.593009893523621	59	0	9	12	0	0	0.186019787047243	0
247	1	[603.3000000119209]	1	1	0.54164299456724	0.458357005432759	54	1	10	12	0	0	0.083285989134481	1
247	1	[552.8000000119209]	1	1	0.572096881453667	0.427903118546332	45	1	11	12	0	0	0.144193762907335	1
247	0	[675.1999999880791]	1	1	0.542554697346806	0.457445302653193	45	0	12	12	0	0	0.0851093946936129	0
247	1	[509.30000001192093]	1	0	0.454667274634101	0.545332725365898	58	1	13	12	0	0	0.090665450731797	0
247	1	[568.1999999880791]	1	0	0.43209494003892	0.567905059961079	56	0	14	12	0	0	0.135810119922159	0
247	0	[603.5999999642372]	1	1	0.563286012217658	0.436713987782342	55	1	15	12	0	0	0.126572024435316	0
247	0	[515.9000000357628]	1	1	0.564952782840861	0.435047217159138	46	0	16	12	0	0	0.129905565681723	0
247	1	[492.19999998807907]	1	0	0.408082652881674	0.591917347118325	55	1	17	12	0	0	0.183834694236651	0
247	0	[533.3000000119209]	1	1	0.533669232054551	0.466330767945448	58	0	18	12	0	0	0.067338464109103	0
247	1	[583.3000000119209]	1	0	0.499031695677913	0.500968304322086	57	0	19	12	0	0	0.00193660864417305	0
247	1	[418.30000001192093]	1	0	0.419368882204045	0.580631117795954	45	0	20	12	0	0	0.161262235591909	0
247	1	[189,506.5999999642372,816.8000000119209]	1	0	0.452662793302726	0.547337206697273	55	0	21	12	0	0	0.094674413394547	0
247	1	[680]	1	1	0.582272546265989	0.41772745373401	42	0	22	12	0	0	0.164545092531979	1
247	1	[581.9000000357628]	1	0	0.489289852271736	0.510710147728263	47	0	23	12	0	0	0.021420295456527	0
247	0	[939.8999999761581]	1	1	0.562978584654663	0.437021415345336	46	0	24	12	0	0	0.125957169309327	0
247	1	[397.5999999642372]	1	1	0.513271539114949	0.48672846088505	38	0	25	12	0	0	0.026543078229899	1
