ID	choice	rt	condition_int	state	contrast_left	contrast_right	reward	trials	blocks	contrast	ecoperf
85	0	484.399999976158	2	0	0.422061626767444	0.577938373232555	0	1	1	0	1
85	1	723.600000023841	2	1	0.539378819269246	0.460621180730753	1	2	1	0	1
85	1	487.299999952316	2	1	0.561546151504356	0.438453848495643	1	3	1	0	1
85	1	567.5	2	1	0.547605630258248	0.452394369741751	1	4	1	0	1
85	0	580	2	0	0.489221749348548	0.510778250651451	0	5	1	0	1
85	1	578.700000047683	2	1	0.578802878633077	0.421197121366922	1	6	1	0	1
85	0	526.100000023841	2	0	0.454669488047953	0.545330511952046	0	7	1	0	1
85	0	410.100000023841	2	0	0.438887802908833	0.561112197091166	0	8	1	0	1
85	0	710.600000023841	2	1	0.520070820552637	0.479929179447362	1	9	1	0	0
85	0	563	2	0	0.462291259583748	0.537708740416251	0	10	1	0	1
85	0	583.599999904632	2	0	0.473034672098088	0.526965327901911	0	11	1	0	1
85	0	530.899999976158	2	0	0.427623035554735	0.572376964445264	0	12	1	0	1
85	1	751.799999952316	2	1	0.542388183715368	0.457611816284631	1	13	1	0	1
85	0	438.5	2	0	0.446929290922756	0.553070709077243	0	14	1	0	1
85	1	494.900000095367	2	1	0.523653441547756	0.476346558452243	1	15	1	0	1
85	0	417.700000047683	2	0	0.424891300880466	0.575108699119534	0	16	1	0	1
85	1	642.799999952316	2	1	0.54764184819098	0.452358151809019	1	17	1	0	1
85	0	533.399999976158	2	0	0.469456749318699	0.5305432506813	0	18	1	0	1
85	0	609.599999904632	2	1	0.567502468757564	0.432497531242435	1	19	1	0	0
85	1	608.900000095367	2	0	0.485031171677596	0.514968828322403	0	20	1	0	0
85	1	682.299999952316	2	1	0.5556378624613	0.4443621375387	1	21	1	0	1
85	1	623.899999976158	2	1	0.569557998051	0.430442001948999	1	22	1	0	1
85	0	776.5	2	0	0.462967757205548	0.537032242794451	0	23	1	0	1
85	1	810.899999976158	2	1	0.537520372270717	0.462479627729282	1	24	1	0	1
85	0	631	2	1	0.500415083117101	0.499584916882898	1	25	1	0	0
85	1	717	4	0	0.141250010077785	0.858749989922214	1	1	2	1	1
85	1	348.300000071525	4	0	0.138380750419732	0.861619249580267	1	2	2	1	1
85	0	424.800000071525	4	1	0.810007032112405	0.189992967887594	0	3	2	1	1
85	0	355.300000071525	4	1	0.812489511860061	0.187510488139938	0	4	2	1	1
85	0	369.300000071525	4	1	0.860791099275625	0.139208900724374	0	5	2	1	1
85	0	390.899999976158	4	1	0.82897710538542	0.171022894614579	0	6	2	1	1
85	1	467.5	4	0	0.151562890827483	0.848437109172516	1	7	2	1	1
85	0	311.400000095367	4	1	0.815387993176645	0.184612006823355	0	8	2	1	1
85	1	380.300000071525	4	0	0.178025206833206	0.821974793166793	1	9	2	1	1
85	1	429.5	4	0	0.134544741142407	0.865455258857592	1	10	2	1	1
85	1	360.600000023841	4	0	0.150740556325154	0.849259443674845	1	11	2	1	1
85	1	320.5	4	0	0.132689346235509	0.86731065376449	1	12	2	1	1
85	0	379.200000047683	4	1	0.844991376595207	0.155008623404792	0	13	2	1	1
85	0	353.600000023841	4	1	0.860287059826155	0.139712940173844	0	14	2	1	1
85	1	394.800000071525	4	0	0.181887269359129	0.81811273064087	1	15	2	1	1
85	1	362.799999952316	4	0	0.192224606349957	0.807775393650042	1	16	2	1	1
85	1	367.100000023841	4	0	0.14570527506377	0.854294724936229	1	17	2	1	1
85	0	478.699999928474	4	1	0.839659860570485	0.160340139429514	0	18	2	1	1
85	0	408.399999976158	4	1	0.802920180780452	0.197079819219547	0	19	2	1	1
85	0	403.199999928474	4	1	0.830731879096542	0.169268120903457	0	20	2	1	1
85	0	374.600000023841	4	1	0.817427228569858	0.182572771430141	0	21	2	1	1
85	1	474.900000095367	4	0	0.132987561081053	0.867012438918946	1	22	2	1	1
85	0	418.699999928474	4	1	0.808552484701681	0.191447515298319	0	23	2	1	1
85	1	370.100000023841	4	0	0.176842322617954	0.823157677382045	1	24	2	1	1
85	0	350.299999952316	4	1	0.82429555784994	0.175704442150059	0	25	2	1	1
85	0	752.399999976158	1	0	0.486261111228011	0.513738888771988	1	1	3	1	0
85	0	748.399999976158	1	1	0.563847590924763	0.436152409075236	0	2	3	1	1
85	0	809.200000047683	1	1	0.533581995486853	0.466418004513146	0	3	3	1	1
85	0	553.399999976158	1	1	0.533905494633162	0.466094505366837	0	4	3	1	1
85	0	935.400000095367	1	1	0.549001232228031	0.450998767771968	0	5	3	1	1
85	1	647.699999928474	1	0	0.437062633267398	0.562937366732601	1	6	3	1	1
85	1	653.5	1	0	0.496407998756804	0.503592001243195	1	7	3	1	1
85	1	456.100000023841	1	0	0.459960808874999	0.540039191125	1	8	3	1	1
85	1	736.299999952316	1	1	0.502448756256992	0.497551243743007	0	9	3	1	0
85	0	416.799999952316	1	1	0.529102626694433	0.470897373305566	0	10	3	1	1
85	1	800	1	0	0.423604891952104	0.576395108047895	1	11	3	1	1
85	1	420	1	0	0.435616325412584	0.564383674587415	1	12	3	1	1
85	0	702.400000095367	1	0	0.424185430671412	0.575814569328587	1	13	3	1	0
85	1	611	1	1	0.510861808000727	0.489138191999272	0	14	3	1	0
85	1	341.5	1	0	0.493160846446407	0.506839153553592	1	15	3	1	1
85	1	195.199999928474	1	1	0.57417680880075	0.425823191199249	0	16	3	1	0
85	1	754.299999952316	1	0	0.485202616151219	0.51479738384878	1	17	3	1	1
85	0	783.199999928474	1	1	0.55222423176839	0.447775768231609	0	18	3	1	1
85	1	276.300000071525	1	1	0.509596397644638	0.490403602355361	0	19	3	1	0
85	0	363.399999976158	1	0	0.429957976379498	0.570042023620501	1	20	3	1	0
85	0	489.799999952316	1	1	0.575150260369388	0.424849739630611	0	21	3	1	1
85	1	642.5	1	1	0.506718845149571	0.493281154850428	0	22	3	1	0
85	0	521.300000071525	1	0	0.439442108027014	0.560557891972985	1	23	3	1	0
85	0	726.600000023841	1	1	0.563816882991118	0.436183117008881	0	24	3	1	1
85	1	638.100000023841	1	0	0.460134706192992	0.539865293807007	1	25	3	1	1
85	0	446.399999976158	3	1	0.871785994816013	0.128214005183986	0	1	4	1	1
85	1	404.399999976158	3	0	0.180402729860149	0.81959727013985	1	2	4	1	1
85	1	478.699999928474	3	0	0.132640419474031	0.867359580525968	1	3	4	1	1
85	0	398.100000023841	3	1	0.810342853372319	0.18965714662768	0	4	4	1	1
85	0	398.600000023841	3	1	0.825461934509473	0.174538065490526	0	5	4	1	1
85	0	356.899999976158	3	1	0.875684142199313	0.124315857800686	0	6	4	1	1
85	0	574.599999904632	3	0	0.190863087234503	0.809136912765496	1	7	4	1	0
85	1	468.5	3	0	0.188600919673725	0.811399080326274	1	8	4	1	1
85	0	452.5	3	1	0.835136711938716	0.164863288061283	0	9	4	1	1
85	1	440.5	3	0	0.175840357698884	0.824159642301115	1	10	4	1	1
85	0	352.599999904632	3	1	0.820996378340416	0.179003621659583	0	11	4	1	1
85	0	415.5	3	1	0.872354002819674	0.127645997180325	0	12	4	1	1
85	1	372.899999976158	3	0	0.13077579046651	0.869224209533489	1	13	4	1	1
85	1	678.300000071525	3	0	0.158817755943747	0.841182244056252	1	14	4	1	1
85	0	523.199999928474	3	1	0.813992018198248	0.186007981801751	0	15	4	1	1
85	1	521.299999952316	3	1	0.852416934642547	0.147583065357453	0	16	4	1	0
85	1	482	3	0	0.179281150952289	0.82071884904771	1	17	4	1	1
85	1	772.700000047683	3	1	0.867216623318269	0.13278337668173	0	18	4	1	0
85	1	404.299999952316	3	0	0.153108184626223	0.846891815373776	1	19	4	1	1
85	1	490.600000023841	3	1	0.860788565182789	0.13921143481721	0	20	4	1	0
85	1	747.899999976158	3	0	0.148226010945946	0.851773989054053	1	21	4	1	1
85	1	454.899999976158	3	0	0.158600443725366	0.841399556274633	1	22	4	1	1
85	1	485.300000071525	3	0	0.121598664700644	0.878401335299356	1	23	4	1	1
85	1	473.600000023841	3	1	0.81216114569457	0.187838854305429	0	24	4	1	0
85	1	372.400000095367	3	0	0.157923575192407	0.842076424807592	1	25	4	1	1
85	1	557.700000047683	3	0	0.135304151002277	0.864695848997722	0	1	5	0	0
85	1	357	3	1	0.870061457700775	0.129938542299224	1	2	5	0	1
85	1	419.200000047683	3	0	0.182553946609067	0.817446053390932	0	3	5	0	0
85	1	405.899999976158	3	0	0.143590663797661	0.856409336202338	0	4	5	0	0
85	0	497.199999928474	3	1	0.871806682594033	0.128193317405966	1	5	5	0	0
85	1	482.600000023841	3	0	0.159808319279672	0.840191680720327	0	6	5	0	0
85	1	401.300000071525	3	0	0.168349552158802	0.831650447841197	0	7	5	0	0
85	0	476.699999928474	3	1	0.846626343163836	0.153373656836163	1	8	5	0	0
85	1	873.699999928474	3	0	0.138540098251498	0.861459901748501	0	9	5	0	0
85	1	40	3	1	0.806435830405705	0.193564169594294	1	10	5	0	1
85	1	131	3	1	0.869312781766224	0.130687218233775	1	11	5	0	1
85	0	358.700000047683	3	0	0.187731552791215	0.812268447208784	0	12	5	0	1
85	0	383	3	0	0.124101095513785	0.875898904486214	0	13	5	0	1
85	1	410.899999976158	3	1	0.865657711316676	0.134342288683323	1	14	5	0	1
85	1	419.5	3	1	0.837643390151777	0.162356609848222	1	15	5	0	1
85	1	371.800000071525	3	1	0.848711068850451	0.151288931149548	1	16	5	0	1
85	0	357.699999928474	3	0	0.142174087963084	0.857825912036915	0	17	5	0	1
85	1	476.900000095367	3	1	0.850414051870797	0.149585948129202	1	18	5	0	1
85	1	416.200000047683	3	1	0.850103056726828	0.149896943273171	1	19	5	0	1
85	1	426.5	3	1	0.80493017251626	0.195069827483739	1	20	5	0	1
85	0	522.899999976158	3	0	0.188855919382215	0.811144080617785	0	21	5	0	1
85	0	426.399999976158	3	0	0.121771982544447	0.878228017455552	0	22	5	0	1
85	0	361.299999952316	3	0	0.176161674644476	0.823838325355523	0	23	5	0	1
85	1	727.600000023841	3	1	0.849488488272919	0.15051151172708	1	24	5	0	1
85	0	536.100000023841	3	0	0.132026586289439	0.86797341371056	0	25	5	0	1
85	0	425.399999976158	4	1	0.879059853149362	0.120940146850637	1	1	6	0	0
85	1	518.199999928474	4	0	0.138522676768773	0.861477323231226	0	2	6	0	0
85	0	399.5	4	0	0.192879173105893	0.807120826894106	0	3	6	0	1
85	1	573.399999976158	4	1	0.816890152860337	0.183109847139662	1	4	6	0	1
85	0	407.299999952316	4	0	0.129189927664553	0.870810072335446	0	5	6	0	1
85	1	404.600000023841	4	1	0.813701849011205	0.186298150988794	1	6	6	0	1
85	0	345.900000095367	4	0	0.153675807619555	0.846324192380444	0	7	6	0	1
85	1	479.5	4	1	0.861136803765668	0.138863196234331	1	8	6	0	1
85	0	340.599999904632	4	0	0.152761170890568	0.847238829109431	0	9	6	0	1
85	1	440.899999976158	4	1	0.810305314494325	0.189694685505675	1	10	6	0	1
85	1	405.200000047683	4	1	0.874561230194416	0.125438769805583	1	11	6	0	1
85	0	429.200000047683	4	0	0.159333855648982	0.840666144351017	0	12	6	0	1
85	0	386.699999928474	4	0	0.186090519436961	0.813909480563038	0	13	6	0	1
85	1	447.600000023841	4	1	0.847817556547144	0.152182443452855	1	14	6	0	1
85	1	437.600000023841	4	1	0.855433158692255	0.144566841307744	1	15	6	0	1
85	1	412.300000071525	4	1	0.812840509468236	0.187159490531763	1	16	6	0	1
85	1	700.799999952316	4	1	0.80419540007027	0.195804599929729	1	17	6	0	1
85	0	528	4	0	0.138200999433827	0.861799000566172	0	18	6	0	1
85	0	382.5	4	0	0.160251967594513	0.839748032405486	0	19	6	0	1
85	0	413.700000047683	4	0	0.131485191516238	0.868514808483761	0	20	6	0	1
85	0	397	4	0	0.193006442098476	0.806993557901523	0	21	6	0	1
85	0	403.5	4	1	0.870965654190111	0.129034345809888	1	22	6	0	0
85	0	502.299999952316	4	0	0.157313485068553	0.842686514931446	0	23	6	0	1
85	1	511.5	4	1	0.868059790645926	0.131940209354073	1	24	6	0	1
85	0	383.399999976158	4	0	0.184963525582557	0.815036474417442	0	25	6	0	1
85	1	598.700000047683	2	1	0.525733568942546	0.474266431057453	0	1	7	1	0
85	1	992.799999952316	2	0	0.479001533108331	0.520998466891668	1	2	7	1	1
85	1	360.699999928474	2	0	0.431243818306305	0.568756181693694	1	3	7	1	1
85	1	696.899999976158	2	0	0.48989335300809	0.510106646991909	1	4	7	1	1
85	0	820.600000023841	2	1	0.542510437531564	0.457489562468436	0	5	7	1	1
85	0	660.699999928474	2	1	0.559801644421752	0.440198355578247	0	6	7	1	1
85	0	870.700000047683	2	1	0.511839533549485	0.488160466450515	0	7	7	1	1
85	0	389.399999976158	2	1	0.564434092810746	0.435565907189253	0	8	7	1	1
85	1	741	2	0	0.44572848057464	0.554271519425359	1	9	7	1	1
85	0	470.800000071525	2	1	0.55894100312036	0.44105899687964	0	10	7	1	1
85	0	496.299999952316	2	1	0.554258625634302	0.445741374365697	0	11	7	1	1
85	1	562.600000023841	2	0	0.451849865497744	0.548150134502255	1	12	7	1	1
85	0	794.699999928474	2	1	0.512346867910989	0.48765313208901	0	13	7	1	1
85	1	566.699999928474	2	0	0.456907112168197	0.543092887831802	1	14	7	1	1
85	1	513.699999928474	2	0	0.431044439778116	0.568955560221883	1	15	7	1	1
85	0	502.699999928474	2	1	0.535231620294544	0.464768379705455	0	16	7	1	1
85	1	345	2	0	0.423710454412153	0.576289545587847	1	17	7	1	1
85	1	642	2	0	0.476727216798603	0.523272783201396	1	18	7	1	1
85	1	497.599999904632	2	0	0.443166036176366	0.556833963823633	1	19	7	1	1
85	0	492.799999952316	2	1	0.576713648247077	0.423286351752922	0	20	7	1	1
85	1	505.700000047683	2	0	0.438076901678365	0.561923098321635	1	21	7	1	1
85	0	488.100000023841	2	0	0.456428496546734	0.543571503453265	1	22	7	1	0
85	1	420	2	0	0.476021337436711	0.523978662563288	1	23	7	1	1
85	1	579.100000023841	2	1	0.5201392319666	0.479860768033399	0	24	7	1	0
85	1	579.799999952316	2	1	0.501723441731453	0.498276558268546	0	25	7	1	0
85	1	902.5	1	0	0.465490968552549	0.53450903144745	0	1	8	0	0
85	0	636.700000047683	1	1	0.536328231537102	0.463671768462897	1	2	8	0	0
85	1	565	1	1	0.559089339702574	0.440910660297425	1	3	8	0	1
85	1	475.5	1	1	0.574315062932933	0.425684937067066	1	4	8	0	1
85	1	508.5	1	1	0.539357635273329	0.46064236472667	1	5	8	0	1
85	0	893.199999928474	1	0	0.492007183668193	0.507992816331806	0	6	8	0	1
85	0	417.5	1	0	0.460377875367456	0.539622124632543	0	7	8	0	1
85	1	715.200000047683	1	1	0.521060162940635	0.478939837059364	1	8	8	0	1
85	0	567.899999976158	1	0	0.465582423244813	0.534417576755186	0	9	8	0	1
85	1	851.600000023841	1	1	0.531211271103031	0.468788728896968	1	10	8	0	1
85	1	797.600000023841	1	1	0.514941691082945	0.485058308917054	1	11	8	0	1
85	1	511.699999928474	1	0	0.444956674722031	0.555043325277969	0	12	8	0	0
85	1	581	1	0	0.473590324351348	0.526409675648651	0	13	8	0	0
85	1	555.399999976158	1	0	0.448652646506961	0.551347353493038	0	14	8	0	0
85	0	976.5	1	1	0.50395455347067	0.496045446529329	1	15	8	0	0
85	0	400.800000071525	1	1	0.577046114266218	0.422953885733781	1	16	8	0	0
85	1	385.700000047683	1	1	0.501669540386127	0.498330459613872	1	17	8	0	1
85	0	346	1	0	0.467587417796662	0.532412582203337	0	18	8	0	1
85	1	355.699999928474	1	0	0.468732786434936	0.531267213565063	0	19	8	0	0
85	0	481	1	0	0.425484247886748	0.574515752113251	0	20	8	0	1
85	0	96.5	1	0	0.424537434763042	0.575462565236957	0	21	8	0	1
85	0	331.600000023841	1	0	0.462596345815	0.537403654184999	0	22	8	0	1
85	0	350.100000023841	1	0	0.439145181012575	0.560854818987425	0	23	8	0	1
85	0	638.5	1	1	0.517457017509347	0.482542982490652	1	24	8	0	0
85	0	33.3999999761581	1	1	0.553348132361974	0.446651867638025	1	25	8	0	0
85	0	481.599999904632	3	1	0.800246265807509	0.19975373419249	1	1	9	0	0
85	0	490.600000023841	3	0	0.182855102738455	0.817144897261544	0	2	9	0	1
85	1	476.899999976158	3	1	0.838597180337228	0.161402819662771	1	3	9	0	1
85	1	620.799999952316	3	1	0.804554927207512	0.195445072792487	1	4	9	0	1
85	0	380.100000023841	3	1	0.819233076892876	0.180766923107123	1	5	9	0	0
85	0	619.700000047683	3	1	0.807494603577554	0.192505396422445	1	6	9	0	0
85	0	501.400000095367	3	1	0.813911505004573	0.186088494995426	1	7	9	0	0
85	1	582.100000023841	3	1	0.818957078898094	0.181042921101905	1	8	9	0	1
85	0	372.700000047683	3	0	0.13069807788002	0.869301922119979	0	9	9	0	1
85	1	447.400000095367	3	1	0.811707489337527	0.188292510662473	1	10	9	0	1
85	1	441.600000023841	3	1	0.857679727072556	0.142320272927443	1	11	9	0	1
85	1	884.199999928474	3	0	0.145759533030726	0.854240466969273	0	12	9	0	0
85	0	309.199999928474	3	1	0.846426672876951	0.153573327123048	1	13	9	0	0
85	0	416.399999976158	3	0	0.187753230266042	0.812246769733957	0	14	9	0	1
85	1	349.899999976158	3	1	0.846703690036124	0.153296309963875	1	15	9	0	1
85	0	498.5	3	0	0.157584592922604	0.842415407077395	0	16	9	0	1
85	0	372.200000047683	3	0	0.130455453852705	0.869544546147294	0	17	9	0	1
85	0	366.600000023841	3	0	0.189665189082408	0.810334810917591	0	18	9	0	1
85	1	500.5	3	1	0.805102519385276	0.194897480614723	1	19	9	0	1
85	0	459.5	3	0	0.1788340611376	0.821165938862399	0	20	9	0	1
85	0	377.100000023841	3	0	0.188356260905568	0.811643739094431	0	21	9	0	1
85	0	148.200000047683	3	0	0.181552278820123	0.818447721179876	0	22	9	0	1
85	0	361.299999952316	3	0	0.187540451603935	0.812459548396064	0	23	9	0	1
85	0	405.400000095367	3	0	0.145520937945155	0.854479062054844	0	24	9	0	1
85	0	403.899999976158	3	0	0.188737286349397	0.811262713650602	0	25	9	0	1
85	0	556.700000047683	1	1	0.567197614738526	0.432802385261473	0	1	10	1	1
85	0	324.100000023841	1	1	0.518402542384797	0.481597457615202	0	2	10	1	1
85	0	433.299999952316	1	1	0.537093998020284	0.462906001979715	0	3	10	1	1
85	1	573.600000023841	1	0	0.421053212249948	0.578946787750051	1	4	10	1	1
85	0	742.600000023841	1	0	0.42696446789965	0.573035532100349	1	5	10	1	0
85	1	371.700000047683	1	1	0.529166701147745	0.470833298852254	0	6	10	1	0
85	1	603	1	0	0.448280792884117	0.551719207115882	1	7	10	1	1
85	1	378.900000095367	1	1	0.538876967253598	0.461123032746401	0	8	10	1	0
85	1	773.399999976158	1	0	0.493916242518406	0.506083757481593	1	9	10	1	1
85	1	533.800000071525	1	0	0.430587813295703	0.569412186704296	1	10	10	1	1
85	1	383.100000023841	1	0	0.421724326943122	0.578275673056877	1	11	10	1	1
85	0	415.600000023841	1	1	0.54583262170885	0.454167378291149	0	12	10	1	1
85	1	547	1	0	0.474036333403254	0.525963666596745	1	13	10	1	1
85	0	504.700000047683	1	1	0.52733892832833	0.472661071671669	0	14	10	1	1
85	1	416.799999952316	1	0	0.42916927243606	0.570830727563939	1	15	10	1	1
85	0	467.600000023841	1	1	0.55329461934535	0.446705380654649	0	16	10	1	1
85	0	497.5	1	1	0.561061749038066	0.438938250961933	0	17	10	1	1
85	1	490.199999928474	1	0	0.463651999319076	0.536348000680923	1	18	10	1	1
85	1	691.199999928474	1	0	0.440763969821202	0.559236030178797	1	19	10	1	1
85	0	507.300000071525	1	1	0.557531742519356	0.442468257480643	0	20	10	1	1
85	1	456.800000071525	1	1	0.579679670504149	0.42032032949585	0	21	10	1	0
85	1	610.300000071525	1	0	0.458116562333109	0.54188343766689	1	22	10	1	1
85	1	707.799999952316	1	1	0.513378350057069	0.48662164994293	0	23	10	1	0
85	0	415.300000071525	1	1	0.540260332371685	0.459739667628314	0	24	10	1	1
85	1	449.099999904632	1	0	0.463796073431023	0.536203926568976	1	25	10	1	1
85	1	412.5	4	0	0.155835614889698	0.844164385110301	1	1	11	1	1
85	0	376.299999952316	4	1	0.824182112560818	0.175817887439181	0	2	11	1	1
85	1	384.099999904632	4	0	0.197101762647022	0.802898237352977	1	3	11	1	1
85	1	380.299999952316	4	0	0.151737116513455	0.848262883486544	1	4	11	1	1
85	1	654.899999976158	4	0	0.133856866336579	0.86614313366342	1	5	11	1	1
85	1	327.299999952316	4	0	0.166958006605761	0.833041993394238	1	6	11	1	1
85	0	462	4	1	0.868935531620493	0.131064468379506	0	7	11	1	1
85	0	393.399999976158	4	1	0.814311965968296	0.185688034031703	0	8	11	1	1
85	1	423.600000023841	4	0	0.138534648793909	0.86146535120609	1	9	11	1	1
85	1	401.299999952316	4	0	0.122616893010563	0.877383106989436	1	10	11	1	1
85	0	376.299999952316	4	1	0.878005006706515	0.121994993293484	0	11	11	1	1
85	1	416	4	0	0.141370389075103	0.858629610924896	1	12	11	1	1
85	0	355.099999904632	4	1	0.842896186885771	0.157103813114228	0	13	11	1	1
85	1	436.799999952316	4	0	0.173471836083676	0.826528163916323	1	14	11	1	1
85	0	440	4	1	0.804826623691665	0.195173376308334	0	15	11	1	1
85	1	405.5	4	0	0.146491765404866	0.853508234595133	1	16	11	1	1
85	0	358.200000047683	4	1	0.827999286732936	0.172000713267063	0	17	11	1	1
85	0	378.799999952316	4	1	0.872483691374898	0.127516308625101	0	18	11	1	1
85	1	562.600000023841	4	0	0.135433860385175	0.864566139614824	1	19	11	1	1
85	1	419.299999952316	4	0	0.199275905312889	0.80072409468711	1	20	11	1	1
85	1	58.2000000476837	4	1	0.825456100617373	0.174543899382626	0	21	11	1	0
85	1	406.599999904632	4	0	0.156406382037564	0.843593617962435	1	22	11	1	1
85	0	439	4	1	0.833095639201688	0.166904360798311	0	23	11	1	1
85	0	714.899999976158	4	1	0.879774922211723	0.120225077788276	0	24	11	1	1
85	0	389.5	4	1	0.839813508159585	0.160186491840414	0	25	11	1	1
85	0	539.600000023841	2	1	0.57929620833096	0.420703791669039	1	1	12	0	0
85	1	674.800000071525	2	1	0.525235921747811	0.474764078252188	1	2	12	0	1
85	1	497.200000047683	2	1	0.573392985152012	0.426607014847987	1	3	12	0	1
85	1	582	2	0	0.496518548084631	0.503481451915368	0	4	12	0	0
85	0	526.399999976158	2	0	0.420261594013748	0.579738405986251	0	5	12	0	1
85	0	447	2	0	0.465263914050007	0.534736085949992	0	6	12	0	1
85	0	315.200000047683	2	0	0.463988085866038	0.536011914133961	0	7	12	0	1
85	0	595.300000071525	2	0	0.441086000181176	0.558913999818823	0	8	12	0	1
85	0	432.100000023841	2	1	0.508361214007497	0.491638785992502	1	9	12	0	0
85	1	857.5	2	1	0.51647042680715	0.483529573192849	1	10	12	0	1
85	1	881.199999928474	2	1	0.515671788317168	0.484328211682832	1	11	12	0	1
85	1	727.600000023841	2	1	0.562994306647184	0.437005693352815	1	12	12	0	1
85	1	358.100000023841	2	1	0.555710690392436	0.444289309607563	1	13	12	0	1
85	1	799.900000095367	2	0	0.441848194532928	0.558151805467071	0	14	12	0	0
85	1	573.800000071525	2	1	0.572958785252934	0.427041214747065	1	15	12	0	1
85	1	541.700000047683	2	0	0.463394420631267	0.536605579368732	0	16	12	0	0
85	1	530	2	1	0.536485102799377	0.463514897200622	1	17	12	0	1
85	1	437.399999976158	2	1	0.564685308370157	0.435314691629842	1	18	12	0	1
85	0	597.399999976158	2	1	0.515087085160434	0.484912914839565	1	19	12	0	0
85	1	334.800000071525	2	1	0.535229793117197	0.464770206882802	1	20	12	0	1
85	1	465.5	2	0	0.443548050360091	0.556451949639908	0	21	12	0	0
85	1	510.699999928474	2	0	0.476558385457913	0.523441614542086	0	22	12	0	0
85	0	679.900000095367	2	0	0.479193937882938	0.520806062117061	0	23	12	0	1
85	0	599.200000047683	2	0	0.446019986675325	0.553980013324674	0	24	12	0	1
85	0	461.900000095367	2	0	0.474583749853559	0.52541625014644	0	25	12	0	1
85	0	710.299999952316	2	0	0.455021683434701	0.544978316565298	1	1	13	1	0
85	0	560.5	2	1	0.573752883224452	0.426247116775547	0	2	13	1	1
85	1	588.899999976158	2	0	0.454977569132796	0.545022430867203	1	3	13	1	1
85	0	602.800000071525	2	1	0.534500455168494	0.465499544831505	0	4	13	1	1
85	0	541.899999976158	2	1	0.567707155687226	0.432292844312773	0	5	13	1	1
85	1	610	2	0	0.429757362975227	0.570242637024772	1	6	13	1	1
85	1	464.899999976158	2	0	0.4781832551117	0.521816744888299	1	7	13	1	1
85	0	595.399999976158	2	1	0.569082188309249	0.43091781169075	0	8	13	1	1
85	0	473.100000023841	2	1	0.565495478759157	0.434504521240842	0	9	13	1	1
85	0	760.800000071525	2	1	0.524342320016727	0.475657679983272	0	10	13	1	1
85	1	549.899999976158	2	0	0.472272462667477	0.527727537332522	1	11	13	1	1
85	1	579.700000047683	2	0	0.436095208042088	0.563904791957911	1	12	13	1	1
85	1	540.5	2	0	0.467021951777351	0.532978048222648	1	13	13	1	1
85	1	538.899999976158	2	0	0.468883535622793	0.531116464377206	1	14	13	1	1
85	1	563.5	2	0	0.420248241829449	0.579751758170551	1	15	13	1	1
85	1	409.699999928474	2	1	0.572222800095712	0.427777199904287	0	16	13	1	0
85	0	971	2	1	0.503473624467489	0.49652637553251	0	17	13	1	1
85	0	879.899999976158	2	1	0.542007126004496	0.457992873995504	0	18	13	1	1
85	1	516.800000071525	2	0	0.462125139673739	0.53787486032626	1	19	13	1	1
85	0	585.899999976158	2	1	0.543275256561429	0.45672474343857	0	20	13	1	1
85	0	432.700000047683	2	1	0.552399908717776	0.447600091282223	0	21	13	1	1
85	1	551.299999952316	2	0	0.470037055529444	0.529962944470555	1	22	13	1	1
85	0	519.899999976158	2	1	0.500778026796909	0.49922197320309	0	23	13	1	1
85	1	766.700000047683	2	0	0.441229761896573	0.558770238103426	1	24	13	1	1
85	0	560.5	2	1	0.535396148593655	0.464603851406344	0	25	13	1	1
85	0	596	3	1	0.850553098578719	0.14944690142128	0	1	14	1	1
85	1	443.199999928474	3	0	0.14798383553802	0.852016164461979	1	2	14	1	1
85	0	591.899999976158	3	1	0.877679681809684	0.122320318190315	0	3	14	1	1
85	0	371.300000071525	3	1	0.873425839391027	0.126574160608973	0	4	14	1	1
85	1	450.600000023841	3	0	0.172339055132096	0.827660944867903	1	5	14	1	1
85	1	411.799999952316	3	0	0.134972337573293	0.865027662426706	1	6	14	1	1
85	1	664.799999952316	3	0	0.155414047009268	0.844585952990731	1	7	14	1	1
85	0	380.600000023841	3	1	0.857741478923639	0.14225852107636	0	8	14	1	1
85	0	398.799999952316	3	1	0.81338354003693	0.186616459963069	0	9	14	1	1
85	1	530	3	0	0.161785269663694	0.838214730336305	1	10	14	1	1
85	0	424.5	3	1	0.81200080428315	0.187999195716849	0	11	14	1	1
85	1	438.799999952316	3	0	0.165995437539872	0.834004562460127	1	12	14	1	1
85	0	376.599999904632	3	1	0.851364184062355	0.148635815937644	0	13	14	1	1
85	1	464.399999976158	3	1	0.858978410206324	0.141021589793675	0	14	14	1	0
85	1	441.900000095367	3	1	0.863941276836291	0.136058723163708	0	15	14	1	0
85	0	689.600000023841	3	1	0.867092844493146	0.132907155506853	0	16	14	1	1
85	1	872.399999976158	3	0	0.181970203980338	0.818029796019661	1	17	14	1	1
85	1	440.5	3	0	0.137428914577797	0.862571085422202	1	18	14	1	1
85	1	331.100000023841	3	0	0.161155428373426	0.838844571626573	1	19	14	1	1
85	1	488.100000023841	3	1	0.818067813428096	0.181932186571903	0	20	14	1	0
85	1	398.700000047683	3	0	0.161689836943358	0.838310163056641	1	21	14	1	1
85	1	386.600000023841	3	0	0.174963331943271	0.825036668056728	1	22	14	1	1
85	1	418	3	0	0.191095521786592	0.808904478213407	1	23	14	1	1
85	1	456.199999928474	3	1	0.806872533593664	0.193127466406335	0	24	14	1	0
85	1	485	3	0	0.149024389089377	0.850975610910622	1	25	14	1	1
85	0	379.300000071525	4	0	0.130311989844361	0.869688010155638	0	1	15	0	1
85	1	474.600000023841	4	1	0.825473897823269	0.17452610217673	1	2	15	0	1
85	0	421.900000095367	4	0	0.199941211294543	0.800058788705456	0	3	15	0	1
85	0	436.100000023841	4	0	0.180012850100348	0.819987149899651	0	4	15	0	1
85	0	544.300000071525	4	0	0.121365845039786	0.878634154960213	0	5	15	0	1
85	1	476.900000095367	4	1	0.830320621927188	0.169679378072811	1	6	15	0	1
85	1	454.399999976158	4	1	0.819832194826883	0.180167805173116	1	7	15	0	1
85	0	578.600000023841	4	0	0.194629809283759	0.80537019071624	0	8	15	0	1
85	1	502.200000047683	4	1	0.831053483000922	0.168946516999077	1	9	15	0	1
85	1	604.800000071525	4	1	0.829093998096389	0.17090600190361	1	10	15	0	1
85	1	486.799999952316	4	1	0.846025387533181	0.153974612466818	1	11	15	0	1
85	1	370.100000023841	4	1	0.815334234212	0.184665765787999	1	12	15	0	1
85	1	506.100000023841	4	1	0.845952207496511	0.154047792503488	1	13	15	0	1
85	1	407.5	4	0	0.123978630850158	0.876021369149841	0	14	15	0	0
85	0	446.300000071525	4	0	0.177084561925824	0.822915438074175	0	15	15	0	1
85	0	635.199999928474	4	0	0.166583835445599	0.8334161645544	0	16	15	0	1
85	1	441.700000047683	4	1	0.84970329987674	0.150296700123259	1	17	15	0	1
85	0	370.5	4	0	0.173511530202983	0.826488469797016	0	18	15	0	1
85	1	451.899999976158	4	1	0.858937707270021	0.141062292729978	1	19	15	0	1
85	1	644.299999952316	4	1	0.833734860283868	0.166265139716131	1	20	15	0	1
85	1	550.800000071525	4	1	0.849872954226718	0.150127045773281	1	21	15	0	1
85	1	641.600000023841	4	0	0.146667200371418	0.853332799628581	0	22	15	0	0
85	0	407.800000071525	4	0	0.181536922982377	0.818463077017622	0	23	15	0	1
85	0	458.700000047683	4	0	0.14110446759358	0.858895532406419	0	24	15	0	1
85	1	538.600000023841	4	1	0.841680069044791	0.158319930955208	1	25	15	0	1
85	1	547.399999976158	1	1	0.566778248974602	0.433221751025397	1	1	16	0	1
85	1	581.600000023841	1	0	0.491678993709807	0.508321006290192	0	2	16	0	0
85	1	841.600000023841	1	0	0.497936570999795	0.502063429000204	0	3	16	0	0
85	1	822.200000047683	1	1	0.566328780966911	0.433671219033088	1	4	16	0	1
85	1	690.799999952316	1	1	0.539400513887209	0.46059948611279	1	5	16	0	1
85	1	503.600000023841	1	0	0.495324967927015	0.504675032072984	0	6	16	0	0
85	1	439.700000047683	1	1	0.506444622110862	0.493555377889137	1	7	16	0	1
85	0	639.399999976158	1	0	0.450276341641917	0.549723658358083	0	8	16	0	1
85	1	893.700000047683	1	1	0.532677060251039	0.46732293974896	1	9	16	0	1
85	0	596.5	1	0	0.451331171251526	0.548668828748473	0	10	16	0	1
85	1	411.299999952316	1	1	0.539655689679568	0.460344310320431	1	11	16	0	1
85	0	583.399999976158	1	0	0.459055418013259	0.54094458198674	0	12	16	0	1
85	0	547.5	1	0	0.447235406235703	0.552764593764297	0	13	16	0	1
85	1	816.600000023841	1	1	0.552837929829518	0.447162070170481	1	14	16	0	1
85	0	629	1	0	0.492750664613966	0.507249335386033	0	15	16	0	1
85	1	455.399999976158	1	1	0.5781066581667	0.421893341833299	1	16	16	0	1
85	0	552.5	1	0	0.4824628528528	0.517537147147199	0	17	16	0	1
85	1	869.800000071525	1	1	0.513912125326119	0.486087874673881	1	18	16	0	1
85	0	484.599999904632	1	1	0.508827199613739	0.49117280038626	1	19	16	0	0
85	0	422.899999976158	1	0	0.421447565112347	0.578552434887652	0	20	16	0	1
85	0	354.5	1	0	0.45579286970539	0.544207130294609	0	21	16	0	1
85	0	399.100000023841	1	0	0.42081845718292	0.579181542817079	0	22	16	0	1
85	0	455.399999976158	1	0	0.431802008965161	0.568197991034838	0	23	16	0	1
85	0	422.200000047683	1	1	0.553766236727688	0.446233763272311	1	24	16	0	0
85	0	658.600000023841	1	1	0.541760149464366	0.458239850535633	1	25	16	0	0
