ID	choice	rt	choice_cond	state	contrast_left	contrast_right	mu	correct	trials	blocks	contrast	congruence	con_diff_choice	ecoperf
327	1	[835.8999999761581]	2	0	0.464235965271232	0.535764034728767	23	1	1	1	1	0	0.071528069457535	1
327	0	[563.3999999761581]	2	0	0.434267271505638	0.565732728494361	9	0	2	1	1	0	0.131465456988723	0
327	1	[460.39999997615814]	2	0	0.409731530171318	0.590268469828681	6	1	3	1	1	0	0.180536939657363	1
327	1	[662.2000000476837]	2	0	0.413376765578594	0.586623234421405	0	1	4	1	1	0	0.173246468842811	1
327	1	[891.8999999761581]	2	1	0.537681214261443	0.462318785738556	0	0	5	1	1	0	0.075362428522887	0
327	1	[491.39999997615814]	2	0	0.462155781562264	0.537844218437735	0	1	6	1	1	0	0.075688436875471	1
327	1	[810.1000000238419]	2	0	0.473164823844416	0.526835176155583	0	1	7	1	1	0	0.053670352311167	1
327	0	[639.7999999523163]	2	1	0.574009473302781	0.425990526697218	0	1	8	1	1	0	0.148018946605563	1
327	1	[888.5]	2	0	0.479054794290788	0.520945205709211	0	1	9	1	1	0	0.041890411418423	1
327	0	[669.9000000953674]	2	1	0.560866486131054	0.439133513868945	0	1	10	1	1	0	0.121732972262109	1
327	0	[546.2000000476837]	2	1	0.530012748585871	0.469987251414128	0	1	11	1	1	0	0.060025497171743	1
327	1	[776.5]	2	0	0.485783480450034	0.514216519549965	0	1	12	1	1	0	0.0284330390999309	1
327	1	[449.10000002384186]	2	0	0.439734076846522	0.560265923153477	0	1	13	1	1	0	0.120531846306955	1
327	0	[496.10000002384186]	2	1	0.567483819410242	0.432516180589757	0	1	14	1	1	0	0.134967638820485	1
327	1	[624.6000000238419]	2	1	0.505132457816548	0.494867542183451	0	0	15	1	1	0	0.010264915633097	0
327	1	[414.7000000476837]	2	0	0.451080621925537	0.548919378074462	0	1	16	1	1	0	0.097838756148925	1
327	0	[615.3999999761581]	2	1	0.594375556637186	0.405624443362813	0	1	17	1	1	0	0.188751113274373	1
327	0	[646]	2	1	0.544351351393543	0.455648648606456	0	1	18	1	1	0	0.088702702787087	1
327	0	[899.6000000238419]	2	1	0.517471953326054	0.482528046673945	0	1	19	1	1	0	0.034943906652109	1
327	1	[509.10000002384186]	2	0	0.47378884413449	0.526211155865509	0	1	20	1	1	0	0.052422311731019	1
327	0	[937]	2	1	0.538870369823137	0.461129630176862	0	1	21	1	1	0	0.077740739646275	1
327	1	[511.5]	2	0	0.413999104345981	0.586000895654018	0	1	22	1	1	0	0.172001791308037	1
327	0	[548.2000000476837]	2	1	0.539837219085892	0.460162780914107	0	1	23	1	1	0	0.079674438171785	1
327	0	[554.8999999761581]	2	1	0.516441767487173	0.483558232512826	0	1	24	1	1	0	0.032883534974347	1
327	0	[479.60000002384186]	2	1	0.539343990913155	0.460656009086844	0	1	25	1	1	0	0.078687981826311	1
327	1	[674.5]	3	0	0.0817671775089167	0.918232822491083	50	0	1	2	0	1	0.836465644982166	0
327	0	[487.39999997615814]	3	0	0.0801400818346339	0.919859918165366	50	0	2	2	0	1	0.839719836330732	1
327	0	[549]	3	0	0.0809578934325911	0.919042106567408	71	1	3	2	0	1	0.838084213134817	1
327	1	[474.8000000715256]	3	1	0.885442320668415	0.114557679331584	82	1	4	2	0	1	0.770884641336831	1
327	0	[460.8000000715256]	3	0	0.0951063799910189	0.904893620008981	50	0	5	2	0	1	0.809787240017962	1
327	0	[471.7999999523163]	3	1	0.863473523209818	0.136526476790181	42	1	6	2	0	1	0.726947046419637	0
327	0	[675.7000000476837]	3	1	0.873144679250043	0.126855320749956	50	0	7	2	0	1	0.746289358500087	0
327	1	[642.8000000715256]	3	0	0.144223212079675	0.855776787920324	35	0	8	2	0	1	0.711553575840649	0
327	0	[681.6000000238419]	3	1	0.928604412232438	0.0713955877675616	37	1	9	2	0	1	0.857208824464876	0
327	0	[403.2999999523163]	3	1	0.881764357228011	0.118235642771988	50	0	10	2	0	1	0.763528714456023	0
327	0	[385.39999997615814]	3	0	0.117707839107317	0.882292160892682	39	0	11	2	0	1	0.764584321785365	1
327	1	[425.89999997615814]	3	0	0.0942625230781299	0.90573747692187	31	0	12	2	0	1	0.81147495384374	0
327	0	[442.2000000476837]	3	1	0.941006531793485	0.0589934682065141	42	0	13	2	0	1	0.882013063586971	0
327	1	[383.10000002384186]	3	0	0.125087432262973	0.874912567737026	35	1	14	2	0	1	0.749825135474053	0
327	1	[461.10000002384186]	3	0	0.136710297559539	0.86328970244046	41	0	15	2	0	1	0.726579404880921	0
327	1	[624.6000000238419]	3	0	0.0834664616936856	0.916533538306314	50	0	16	2	0	1	0.833067076612628	0
327	1	[609.2999999523163]	3	1	0.93073560329945	0.0692643967005496	57	1	17	2	0	1	0.8614712065989	1
327	1	[536.7999999523163]	3	1	0.948535018006409	0.0514649819935901	50	0	18	2	0	1	0.897070036012819	1
327	1	[586.5]	3	0	0.144375941299066	0.855624058700933	57	0	19	2	0	1	0.711248117401867	0
327	0	[402.2000000476837]	3	0	0.107711417884292	0.892288582115707	61	1	20	2	0	1	0.784577164231415	1
327	1	[475]	3	1	0.852462963965427	0.147537036034572	66	1	21	2	0	1	0.704925927930855	1
327	0	[410.89999997615814]	3	0	0.0890702479502074	0.910929752049792	74	1	22	2	0	1	0.821859504099585	1
327	1	[407.2999999523163]	3	1	0.895770991938383	0.104229008061616	65	0	23	2	0	1	0.791541983876767	1
327	1	[514.7000000476837]	3	1	0.938162993667923	0.0618370063320763	74	1	24	2	0	1	0.876325987335847	1
327	1	[509.3000000715256]	3	1	0.943325859049996	0.056674140950003	78	1	25	2	0	1	0.886651718099993	1
327	0	[440.39999997615814]	2	0	0.402417843996631	0.597582156003368	73	1	1	3	0	1	0.195164312006737	1
327	0	[456.89999997615814]	2	0	0.489437608714075	0.510562391285925	85	1	2	3	0	1	0.02112478257185	1
327	0	[842.5]	2	1	0.503044043717064	0.496955956282935	83	0	3	3	0	1	0.00608808743412903	0
327	1	[742.2999999523163]	2	1	0.548572833808411	0.451427166191588	87	1	4	3	0	1	0.097145667616823	1
327	1	[564.6999999284744]	2	1	0.518730715866173	0.481269284133826	92	1	5	3	0	1	0.037461431732347	1
327	1	[624.5]	2	1	0.566144144302232	0.433855855697767	96	1	6	3	0	1	0.132288288604465	1
327	1	[638]	2	1	0.555900121188746	0.444099878811253	100	1	7	3	0	1	0.111800242377493	1
327	0	[492.1999999284744]	2	0	0.457388111420597	0.542611888579402	100	1	8	3	0	1	0.085223777158805	1
327	0	[524.6000000238419]	2	0	0.40047743454552	0.59952256545448	100	1	9	3	0	1	0.19904513090896	1
327	0	[398.59999990463257]	2	1	0.551353455365178	0.448646544634821	100	0	10	3	0	1	0.102706910730357	0
327	0	[504]	2	0	0.446387016240547	0.553612983759452	100	1	11	3	0	1	0.107225967518905	1
327	0	[590.3000000715256]	2	0	0.457461028112245	0.542538971887754	100	1	12	3	0	1	0.085077943775509	1
327	1	[676.9000000953674]	2	1	0.554667394522989	0.44533260547701	100	1	13	3	0	1	0.109334789045979	1
327	0	[610.1000000238419]	2	0	0.464871451210877	0.535128548789122	100	1	14	3	0	1	0.070257097578245	1
327	1	[454.7000000476837]	2	1	0.591368588992863	0.408631411007136	100	1	15	3	0	1	0.182737177985727	1
327	0	[404.3000000715256]	2	0	0.455277761931851	0.544722238068149	100	1	16	3	0	1	0.089444476136298	1
327	0	[460.2000000476837]	2	0	0.472343240554513	0.527656759445486	100	1	17	3	0	1	0.055313518890973	1
327	1	[478.6999999284744]	2	1	0.525210886645463	0.474789113354536	100	1	18	3	0	1	0.050421773290927	1
327	1	[432.7999999523163]	2	1	0.51796756779216	0.482032432207839	100	1	19	3	0	1	0.035935135584321	1
327	0	[524.3999999761581]	2	0	0.440411246289808	0.559588753710191	100	1	20	3	0	1	0.119177507420383	1
327	0	[584.7999999523163]	2	0	0.409137050710154	0.590862949289845	99	1	21	3	0	1	0.181725898579691	1
327	0	[552.8999999761581]	2	0	0.415941409433526	0.584058590566473	100	1	22	3	0	1	0.168117181132947	1
327	1	[507.89999997615814]	2	1	0.551813384660481	0.448186615339518	100	1	23	3	0	1	0.103626769320963	1
327	0	[484.2000000476837]	2	0	0.480320732386757	0.519679267613242	100	1	24	3	0	1	0.039358535226485	1
327	1	[527.7999999523163]	2	1	0.553201398301576	0.446798601698423	100	1	25	3	0	1	0.106402796603153	1
327	0	[585.2999999523163]	1	0	0.401224388950921	0.598775611049078	29	1	1	4	0	0	0.197551222098157	1
327	0	[531.6999999284744]	1	1	0.500063850790786	0.499936149209213	24	0	2	4	0	0	0.000127701581572992	0
327	0	[497.39999997615814]	1	0	0.423029592353691	0.576970407646308	35	0	3	4	0	0	0.153940815292617	1
327	1	[490.89999997615814]	1	1	0.533750825223178	0.466249174776821	42	0	4	4	0	0	0.067501650446357	1
327	1	[469.39999997615814]	1	1	0.593936629449335	0.406063370550664	33	1	5	4	0	0	0.187873258898671	1
327	1	[895.7000000476837]	1	1	0.533945357100038	0.466054642899961	39	0	6	4	0	0	0.067890714200077	1
327	1	[484.40000009536743]	1	1	0.570198012383577	0.429801987616422	50	1	7	4	0	0	0.140396024767155	1
327	1	[659.6000000238419]	1	1	0.529242535659889	0.47075746434011	37	1	8	4	0	0	0.058485071319779	1
327	0	[484.10000002384186]	1	0	0.453188055067168	0.546811944932831	23	1	9	4	0	0	0.093623889865663	1
327	0	[507.6999999284744]	1	0	0.466354291660651	0.533645708339348	30	0	10	4	0	0	0.067291416678697	1
327	0	[509.3000000715256]	1	0	0.437683680725752	0.562316319274247	34	1	11	4	0	0	0.124632638548495	1
327	0	[535.6000000238419]	1	0	0.431909460950892	0.568090539049108	35	0	12	4	0	0	0.136181078098216	1
327	1	[526.5999999046326]	1	0	0.49139144235489	0.508608557645109	40	0	13	4	0	0	0.017217115290219	0
327	1	[792.1000000238419]	1	0	0.477868002609769	0.52213199739023	42	1	14	4	0	0	0.0442639947804609	0
327	1	[702.1999999284744]	1	1	0.569251258667156	0.430748741332843	29	1	15	4	0	0	0.138502517334313	1
327	1	[484.60000002384186]	1	1	0.591356880951307	0.408643119048692	34	0	16	4	0	0	0.182713761902615	1
327	1	[724.0999999046326]	1	0	0.437965979876464	0.562034020123535	37	0	17	4	0	0	0.124068040247071	0
327	0	[501.60000002384186]	1	0	0.466246797212991	0.533753202787008	39	1	18	4	0	0	0.067506405574017	1
327	0	[493.39999997615814]	1	0	0.428967362761349	0.57103263723865	30	1	19	4	0	0	0.142065274477301	1
327	0	[423.2000000476837]	1	0	0.420145938553681	0.579854061446318	20	1	20	4	0	0	0.159708122892637	1
327	1	[495.2000000476837]	1	1	0.556415950219917	0.443584049780082	15	1	21	4	0	0	0.112831900439835	1
327	0	[539]	1	1	0.520951421110111	0.479048578889888	21	1	22	4	0	0	0.0419028422202229	0
327	0	[463.2999999523163]	1	0	0.400473983817309	0.599526016182691	17	1	23	4	0	0	0.199052032365382	1
327	1	[729.8999999761581]	1	1	0.523224879050515	0.476775120949484	11	1	24	4	0	0	0.046449758101031	1
327	1	[759.6000000238419]	1	1	0.505287542557046	0.494712457442953	8	1	25	4	0	0	0.010575085114093	1
327	1	[726.5]	1	1	0.58414061870725	0.415859381292749	67	1	1	5	0	1	0.168281237414501	1
327	1	[519.2999999523163]	1	1	0.583946726566842	0.416053273433157	50	0	2	5	0	1	0.167893453133685	1
327	0	[578.3999999761581]	1	0	0.493523120084587	0.506476879915412	41	1	3	5	0	1	0.012953759830825	1
327	0	[560.5]	1	0	0.437684349434278	0.562315650565722	39	0	4	5	0	1	0.124631301131444	1
327	1	[538.5]	1	0	0.495192462049189	0.50480753795081	29	0	5	5	0	1	0.00961507590162103	0
327	1	[563]	1	1	0.534938237570317	0.465061762429682	40	1	6	5	0	1	0.069876475140635	1
327	0	[645.3999999761581]	1	0	0.40740493201683	0.592595067983169	36	0	7	5	0	1	0.185190135966339	1
327	1	[539.5]	1	0	0.432259572719429	0.567740427280571	42	0	8	5	0	1	0.135480854561142	0
327	0	[370.39999997615814]	1	1	0.514899139398252	0.485100860601747	50	1	9	5	0	1	0.029798278796505	0
327	1	[798.5]	1	0	0.434955849691994	0.565044150308005	36	0	10	5	0	1	0.130088300616011	0
327	1	[614.3999999761581]	1	0	0.438687246341181	0.561312753658818	32	1	11	5	0	1	0.122625507317637	0
327	0	[860]	1	1	0.522695040723153	0.477304959276846	36	0	12	5	0	1	0.045390081446307	0
327	0	[736.0999999046326]	1	1	0.519607918482765	0.480392081517234	58	0	13	5	0	1	0.039215836965531	0
327	0	[965.6000000238419]	1	1	0.597117661717551	0.402882338282449	63	0	14	5	0	1	0.194235323435102	0
327	0	[909.6999999284744]	1	0	0.463136809088617	0.536863190911382	70	1	15	5	0	1	0.073726381822765	1
327	1	[861.7999999523163]	1	1	0.513764077145982	0.486235922854017	59	0	16	5	0	1	0.027528154291965	1
327	0	[800.7999999523163]	1	0	0.455062032416764	0.544937967583235	67	1	17	5	0	1	0.089875935166471	1
327	0	[656.6000000238419]	1	0	0.488645207516726	0.511354792483273	74	1	18	5	0	1	0.022709584966547	1
327	1	[560.2999999523163]	1	1	0.569095024664254	0.430904975335745	60	0	19	5	0	1	0.138190049328509	1
327	0	[515.6000000238419]	1	0	0.415727954838037	0.584272045161963	71	1	20	5	0	1	0.168544090323926	1
327	0	[626.1999999284744]	1	0	0.489937532208367	0.510062467791632	75	1	21	5	0	1	0.020124935583265	1
327	1	[809.9000000953674]	1	1	0.567929101953253	0.432070898046746	79	1	22	5	0	1	0.135858203906507	1
327	0	[409.2999999523163]	1	0	0.429491236796949	0.57050876320305	59	0	23	5	0	1	0.141017526406101	1
327	1	[552.5]	1	1	0.558672645407747	0.441327354592252	68	0	24	5	0	1	0.117345290815495	1
327	1	[521.0999999046326]	1	1	0.537290597431499	0.4627094025685	71	0	25	5	0	1	0.074581194862999	1
327	1	[600.7000000476837]	2	0	0.46345854299674	0.53654145700326	50	1	1	6	1	1	0.07308291400652	1
327	1	[441]	2	0	0.426826477091172	0.573173522908827	69	1	2	6	1	1	0.146347045817655	1
327	0	[532.7000000476837]	2	1	0.546004039939082	0.453995960060917	85	1	3	6	1	1	0.092008079878165	1
327	0	[514.7999999523163]	2	1	0.559793587423791	0.440206412576208	99	1	4	6	1	1	0.119587174847583	1
327	0	[580.6999999284744]	2	1	0.554826144899889	0.44517385510011	100	1	5	6	1	1	0.109652289799779	1
327	0	[439.10000002384186]	2	1	0.559145981172591	0.440854018827408	100	1	6	6	1	1	0.118291962345183	1
327	0	[504.5]	2	1	0.587660574696567	0.412339425303432	100	1	7	6	1	1	0.175321149393135	1
327	1	[516.6000000238419]	2	0	0.493958205335475	0.506041794664524	100	1	8	6	1	1	0.012083589329049	1
327	1	[498.60000002384186]	2	0	0.423236813191984	0.576763186808015	100	1	9	6	1	1	0.153526373616031	1
327	1	[502.89999997615814]	2	0	0.405277373644183	0.594722626355816	100	1	10	6	1	1	0.189445252711633	1
327	1	[555.4000000953674]	2	1	0.510371407166963	0.489628592833036	100	0	11	6	1	1	0.0207428143339271	0
327	1	[535.7000000476837]	2	0	0.413703539413722	0.586296460586277	100	1	12	6	1	1	0.172592921172555	1
327	0	[662.6999999284744]	2	1	0.531333594475123	0.468666405524876	100	1	13	6	1	1	0.062667188950247	1
327	1	[442.89999997615814]	2	0	0.433447148219759	0.56655285178024	100	1	14	6	1	1	0.133105703560481	1
327	1	[476.2999999523163]	2	0	0.413437296813823	0.586562703186176	100	1	15	6	1	1	0.173125406372353	1
327	0	[468]	2	1	0.56850067193828	0.43149932806172	100	1	16	6	1	1	0.13700134387656	1
327	1	[545.5]	2	0	0.456291498110233	0.543708501889766	100	1	17	6	1	1	0.087417003779533	1
327	1	[620.5]	2	0	0.41045218880868	0.589547811191319	100	1	18	6	1	1	0.179095622382639	1
327	1	[505.60000002384186]	2	0	0.493156545079835	0.506843454920164	100	1	19	6	1	1	0.0136869098403291	1
327	0	[456.5]	2	1	0.595290470462904	0.404709529537095	100	1	20	6	1	1	0.190580940925809	1
327	0	[727.3999999761581]	2	1	0.532529333923026	0.467470666076973	100	1	21	6	1	1	0.065058667846053	1
327	1	[530.3999999761581]	2	0	0.463501715760469	0.53649828423953	100	1	22	6	1	1	0.0729965684790611	1
327	0	[798.3000000715256]	2	1	0.541264731830808	0.458735268169191	100	1	23	6	1	1	0.082529463661617	1
327	0	[476.7999999523163]	2	1	0.571422797343436	0.428577202656563	100	1	24	6	1	1	0.142845594686873	1
327	0	[454.10000002384186]	2	1	0.571799450029168	0.428200549970831	100	1	25	6	1	1	0.143598900058337	1
327	1	[684.2000000476837]	1	0	0.454680749792097	0.545319250207902	50	1	1	7	1	0	0.090638500415805	1
327	0	[449.89999997615814]	1	1	0.583018669800616	0.416981330199383	33	1	2	7	1	0	0.166037339601233	1
327	1	[554.6000000238419]	1	0	0.44375213605777	0.556247863942229	33	0	3	7	1	0	0.112495727884459	1
327	0	[708.3999999761581]	1	0	0.492135993360732	0.507864006639267	25	0	4	7	1	0	0.015728013278535	0
327	1	[589]	1	1	0.523221631379705	0.476778368620294	28	1	5	7	1	0	0.046443262759411	0
327	0	[927.6000000238419]	1	1	0.518609464124748	0.481390535875251	21	1	6	7	1	0	0.037218928249497	1
327	1	[734.8000000715256]	1	0	0.468971665401509	0.53102833459849	31	0	7	7	1	0	0.062056669196981	1
327	0	[588.1999999284744]	1	0	0.47697161856321	0.523028381436789	25	0	8	7	1	0	0.046056762873579	0
327	0	[542.9000000953674]	1	1	0.543381871030555	0.456618128969444	32	0	9	7	1	0	0.086763742061111	1
327	0	[472.60000002384186]	1	1	0.571890509968375	0.428109490031624	29	1	10	7	1	0	0.143781019936751	1
327	1	[493.6999999284744]	1	1	0.527501422976577	0.472498577023422	36	1	11	7	1	0	0.055002845953155	0
327	0	[459]	1	0	0.408392857530515	0.591607142469484	32	0	12	7	1	0	0.183214284938969	0
327	1	[462.60000002384186]	1	0	0.46316568789469	0.536834312105309	29	1	13	7	1	0	0.073668624210619	1
327	0	[488.6999999284744]	1	1	0.589261857433832	0.410738142566168	18	1	14	7	1	0	0.178523714867664	1
327	1	[407.89999997615814]	1	0	0.405703607745668	0.594296392254331	27	0	15	7	1	0	0.188592784508663	1
327	1	[468.5]	1	0	0.421095369574725	0.578904630425274	15	1	16	7	1	0	0.157809260850549	1
327	0	[639.1999999284744]	1	1	0.536720423707789	0.46327957629221	21	0	17	7	1	0	0.073440847415579	1
327	0	[547.2000000476837]	1	1	0.558744907304057	0.441255092695942	16	1	18	7	1	0	0.117489814608115	1
327	0	[484]	1	1	0.556798688742473	0.443201311257526	10	1	19	7	1	0	0.113597377484947	1
327	1	[487.7000000476837]	1	0	0.453099602503745	0.546900397496254	20	0	20	7	1	0	0.093800794992509	1
327	1	[474.2000000476837]	1	0	0.422658898520144	0.577341101479855	11	1	21	7	1	0	0.154682202959711	1
327	1	[391.39999997615814]	1	0	0.42222612523631	0.577773874763689	6	1	22	7	1	0	0.155547749527379	1
327	1	[428.5]	1	0	0.404042756964706	0.595957243035293	3	1	23	7	1	0	0.191914486070587	1
327	0	[398.39999997615814]	1	1	0.594808575512943	0.405191424487056	0	1	24	7	1	0	0.189617151025887	1
327	0	[478.2999999523163]	1	1	0.538361258564847	0.461638741435152	0	1	25	7	1	0	0.076722517129695	1
327	1	[477.2000000476837]	2	0	0.402107317379297	0.597892682620702	38	0	1	8	0	0	0.195785365241405	0
327	0	[417]	2	0	0.429077015753198	0.570922984246801	29	1	2	8	0	0	0.141845968493603	1
327	0	[417.39999997615814]	2	0	0.408386496941045	0.591613503058954	24	1	3	8	0	0	0.183227006117909	1
327	0	[430]	2	0	0.454247234285978	0.545752765714021	18	1	4	8	0	0	0.091505531428043	1
327	0	[416.39999997615814]	2	0	0.410282439270969	0.58971756072903	13	1	5	8	0	0	0.179435121458061	1
327	0	[398.39999997615814]	2	0	0.469404365174947	0.530595634825052	7	1	6	8	0	0	0.061191269650105	1
327	0	[471.8000000715256]	2	0	0.460503294370811	0.539496705629188	5	1	7	8	0	0	0.0789934112583769	1
327	0	[422.2000000476837]	2	0	0.495072374873618	0.504927625126381	0	1	8	8	0	0	0.00985525025276301	1
327	0	[793.9000000953674]	2	1	0.534429790900694	0.465570209099305	0	0	9	8	0	0	0.068859581801389	0
327	0	[441]	2	1	0.500978334702123	0.499021665297876	0	0	10	8	0	0	0.00195666940424705	0
327	1	[447.10000002384186]	2	1	0.587832125764411	0.412167874235588	0	1	11	8	0	0	0.175664251528823	1
327	1	[458.5]	2	1	0.560339313381525	0.439660686618474	0	1	12	8	0	0	0.120678626763051	1
327	1	[602.8999999761581]	2	1	0.526576057013618	0.473423942986381	0	1	13	8	0	0	0.053152114027237	1
327	0	[435.5]	2	0	0.497104682350246	0.502895317649753	0	1	14	8	0	0	0.00579063529950702	1
327	1	[494.89999997615814]	2	1	0.549713561118276	0.450286438881723	0	1	15	8	0	0	0.099427122236553	1
327	1	[527.3999999761581]	2	1	0.54180495649776	0.458195043502239	0	1	16	8	0	0	0.083609912995521	1
327	0	[543.1999999284744]	2	1	0.500566495451906	0.499433504548093	1	0	17	8	0	0	0.00113299090381302	0
327	1	[489.2999999523163]	2	1	0.590655392520028	0.409344607479971	0	1	18	8	0	0	0.181310785040057	1
327	0	[502]	2	0	0.482349934973177	0.517650065026822	0	1	19	8	0	0	0.035300130053645	1
327	1	[661.2999999523163]	2	1	0.531327717515844	0.468672282484156	0	1	20	8	0	0	0.062655435031688	1
327	1	[476.60000002384186]	2	1	0.591692142577296	0.408307857422703	0	1	21	8	0	0	0.183384285154593	1
327	0	[482.89999997615814]	2	0	0.434826575391001	0.565173424608998	0	1	22	8	0	0	0.130346849217997	1
327	1	[492.5]	2	1	0.58986939590181	0.410130604098189	0	1	23	8	0	0	0.179738791803621	1
327	1	[507.39999997615814]	2	1	0.556625261146574	0.443374738853425	0	1	24	8	0	0	0.113250522293149	1
327	0	[533.7999999523163]	2	0	0.448894846989175	0.551105153010825	0	1	25	8	0	0	0.10221030602165	1
327	0	[431.2000000476837]	1	1	0.591925792220929	0.40807420777907	50	1	1	9	1	1	0.183851584441859	1
327	1	[597.7999999523163]	1	1	0.524775418403587	0.475224581596412	50	1	2	9	1	1	0.049550836807175	0
327	0	[828.5]	1	1	0.576531673587132	0.423468326412867	60	1	3	9	1	1	0.153063347174265	1
327	1	[484.1999999284744]	1	0	0.426775499808164	0.573224500191835	74	1	4	9	1	1	0.146449000383671	1
327	1	[406.89999997615814]	1	0	0.45363413161498	0.546365868385019	65	0	5	9	1	1	0.092731736770039	1
327	1	[413.6999999284744]	1	0	0.425372714418717	0.574627285581282	73	1	6	9	1	1	0.149254571162565	1
327	1	[392.40000009536743]	1	0	0.443409140715278	0.556590859284721	65	0	7	9	1	1	0.113181718569443	1
327	1	[600.6999999284744]	1	0	0.493532535463909	0.50646746453609	70	1	8	9	1	1	0.012934929072181	1
327	1	[419.60000002384186]	1	0	0.491044788493805	0.508955211506194	74	1	9	9	1	1	0.017910423012389	1
327	0	[782.2999999523163]	1	1	0.589514695261139	0.41048530473886	69	0	10	9	1	1	0.179029390522279	1
327	1	[477.8000000715256]	1	0	0.48693926123301	0.513060738766989	74	1	11	9	1	1	0.026121477533979	1
327	0	[700.5]	1	1	0.525263267526372	0.474736732473627	77	1	12	9	1	1	0.050526535052745	1
327	1	[449]	1	0	0.439415442704018	0.560584557295981	73	0	13	9	1	1	0.121169114591963	1
327	0	[699]	1	1	0.589979121185638	0.410020878814361	69	0	14	9	1	1	0.179958242371277	1
327	1	[574.3999999761581]	1	1	0.501433950712903	0.498566049287096	73	0	15	9	1	1	0.00286790142580695	0
327	0	[505.10000002384186]	1	1	0.544509083964383	0.455490916035616	60	0	16	9	1	1	0.089018167928767	1
327	1	[493.39999997615814]	1	0	0.467971704730631	0.532028295269368	67	1	17	9	1	1	0.064056590538737	1
327	1	[514.4000000953674]	1	1	0.508742186872722	0.491257813127277	67	0	18	9	1	1	0.017484373745445	0
327	0	[809]	1	1	0.522441166689531	0.477558833310468	72	1	19	9	1	1	0.044882333379063	1
327	1	[635.5]	1	0	0.423702228988831	0.576297771011169	62	0	20	9	1	1	0.152595542022338	1
327	1	[418.10000002384186]	1	0	0.472854539722815	0.527145460277184	72	1	21	9	1	1	0.054290920554369	1
327	0	[506.1999999284744]	1	1	0.539445553852379	0.46055444614762	74	1	22	9	1	1	0.078891107704759	1
327	1	[465]	1	0	0.493232061752864	0.506767938247135	76	1	23	9	1	1	0.013535876494271	1
327	0	[529.1000000238419]	1	1	0.545119678687204	0.454880321312795	85	1	24	9	1	1	0.090239357374409	1
327	1	[440.89999997615814]	1	0	0.434881529416914	0.565118470583085	96	1	25	9	1	1	0.130236941166171	1
327	1	[420.7000000476837]	3	0	0.127273456448122	0.872726543551877	30	1	1	10	1	0	0.745453087103755	1
327	0	[488.7999999523163]	3	1	0.892431886562676	0.107568113437323	10	1	2	10	1	0	0.784863773125353	1
327	0	[510.7999999523163]	3	1	0.854540141063442	0.145459858936557	23	0	3	10	1	0	0.709080282126885	1
327	0	[378.60000002384186]	3	1	0.895741165529689	0.10425883447031	19	1	4	10	1	0	0.791482331059379	1
327	1	[402.10000002384186]	3	0	0.121126994889793	0.878873005110206	26	0	5	10	1	0	0.757746010220413	1
327	1	[400.8000000715256]	3	0	0.108016328119415	0.891983671880584	23	1	6	10	1	0	0.783967343761169	1
327	0	[410]	3	1	0.915626603857027	0.0843733961429725	26	0	7	10	1	0	0.831253207714055	1
327	0	[379]	3	1	0.919276434828775	0.0807235651712241	26	1	8	10	1	0	0.838552869657551	1
327	1	[443.39999997615814]	3	0	0.0818737302326128	0.918126269767387	30	0	9	10	1	0	0.836252539534774	1
327	0	[334.7000000476837]	3	1	0.94260416095215	0.0573958390478496	36	0	10	10	1	0	0.8852083219043	1
327	1	[497]	3	0	0.10582344766626	0.894176552333739	30	1	11	10	1	0	0.788353104667479	1
327	1	[399.2000000476837]	3	0	0.0757349506997328	0.924265049300267	25	1	12	10	1	0	0.848530098600534	1
327	1	[413.8000000715256]	3	0	0.11290188348191	0.887098116518089	14	1	13	10	1	0	0.774196233036179	1
327	0	[342]	3	1	0.91739160178176	0.0826083982182394	9	1	14	10	1	0	0.834783203563521	1
327	0	[330.89999997615814]	3	1	0.874818172400855	0.125181827599144	19	0	15	10	1	0	0.749636344801711	1
327	0	[409.10000002384186]	3	1	0.920686830951319	0.0793131690486808	8	1	16	10	1	0	0.841373661902638	1
327	0	[340.5]	3	1	0.905018949864638	0.0949810501353612	4	1	17	10	1	0	0.810037899729277	1
327	1	[419.5]	3	0	0.0945781384687143	0.905421861531285	12	0	18	10	1	0	0.810843723062571	1
327	0	[418.89999997615814]	3	1	0.901704638945167	0.0982953610548328	7	1	19	10	1	0	0.803409277890334	1
327	1	[419.1999999284744]	3	0	0.1402477987713	0.859752201228699	7	1	20	10	1	0	0.719504402457399	1
327	1	[470.5]	3	0	0.12327520664557	0.876724793354429	11	0	21	10	1	0	0.753449586708859	1
327	1	[397.6999999284744]	3	0	0.0562208438443863	0.943779156155613	6	1	22	10	1	0	0.887558312311227	1
327	0	[379.2999999523163]	3	1	0.883991886539048	0.116008113460951	3	1	23	10	1	0	0.767983773078097	1
327	0	[367.10000002384186]	3	1	0.881424689693511	0.118575310306488	0	1	24	10	1	0	0.762849379387023	1
327	1	[411.2000000476837]	3	0	0.0532280213761791	0.94677197862382	0	1	25	10	1	0	0.893543957247641	1
327	1	[936.8999999761581]	3	0	0.0758368100252239	0.924163189974776	100	1	1	11	1	1	0.848326379949552	1
327	0	[296.7999999523163]	3	1	0.942708579451769	0.0572914205482301	100	1	2	11	1	1	0.885417158903539	1
327	0	[323.89999997615814]	3	1	0.850706800014897	0.149293199985103	79	0	3	11	1	1	0.701413600029794	1
327	1	[503.39999997615814]	3	0	0.120167295598897	0.879832704401102	64	0	4	11	1	1	0.759665408802205	1
327	0	[555]	3	0	0.135064491931056	0.864935508068943	61	0	5	11	1	1	0.729871016137887	0
327	0	[440.10000002384186]	3	1	0.881819106856232	0.118180893143767	50	0	6	11	1	1	0.763638213712465	1
327	1	[442.2999999523163]	3	0	0.0923256384641534	0.907674361535846	50	0	7	11	1	1	0.815348723071693	1
327	0	[381]	3	1	0.899836383605851	0.100163616394148	55	1	8	11	1	1	0.799672767211703	1
327	0	[379.2000000476837]	3	1	0.878022439716509	0.121977560283491	50	0	9	11	1	1	0.756044879433018	1
327	0	[407.7999999523163]	3	1	0.899914721021204	0.100085278978795	56	1	10	11	1	1	0.799829442042409	1
327	0	[384.1999999284744]	3	1	0.904355474716191	0.0956445252838087	50	0	11	11	1	1	0.808710949432382	1
327	0	[411.5]	3	1	0.921302417032485	0.0786975829675148	56	1	12	11	1	1	0.84260483406497	1
327	1	[403.1999999284744]	3	0	0.0810589366673312	0.918941063332668	58	1	13	11	1	1	0.837882126665337	1
327	1	[388.7000000476837]	3	0	0.11554356062567	0.884456439374329	61	1	14	11	1	1	0.768912878748659	1
327	0	[378.39999997615814]	3	1	0.908880191992583	0.0911198080074167	63	1	15	11	1	1	0.817760383985166	1
327	1	[533.1000000238419]	3	0	0.0531268146558777	0.946873185344122	67	1	16	11	1	1	0.893746370688244	1
327	1	[385.1999999284744]	3	0	0.0992221936919165	0.900777806308083	62	0	17	11	1	1	0.801555612616166	1
327	1	[415.2000000476837]	3	0	0.133211703739441	0.866788296260558	64	1	18	11	1	1	0.733576592521117	1
327	0	[368.3000000715256]	3	1	0.852255483658823	0.147744516341176	66	1	19	11	1	1	0.704510967317647	1
327	1	[415.8000000715256]	3	0	0.0725001563016829	0.927499843698317	63	0	20	11	1	1	0.854999687396634	1
327	0	[386.2999999523163]	3	1	0.889951090239959	0.11004890976004	67	1	21	11	1	1	0.779902180479919	1
327	1	[384.5]	3	0	0.0859182002104024	0.914081799789597	69	1	22	11	1	1	0.828163599579195	1
327	1	[390]	3	0	0.140318535012599	0.8596814649874	74	1	23	11	1	1	0.719362929974801	1
327	0	[431.39999997615814]	3	1	0.878958296352033	0.121041703647966	79	1	24	11	1	1	0.757916592704067	1
327	0	[369.10000002384186]	3	1	0.917227555739733	0.0827724442602667	83	0	25	11	1	1	0.834455111479466	1
327	1	[425.59999990463257]	3	0	0.121921793277583	0.878078206722417	38	0	1	12	0	0	0.756156413444834	0
327	0	[429.7000000476837]	3	0	0.139024075523166	0.860975924476833	50	0	2	12	0	0	0.721951848953667	1
327	0	[521.1000000238419]	3	0	0.0787618884047688	0.921238111595231	40	1	3	12	0	0	0.842476223190462	1
327	1	[393.90000009536743]	3	1	0.872529227469045	0.127470772530954	24	1	4	12	0	0	0.745058454938091	1
327	1	[392.1999999284744,424]	3	1	0.873071411769622	0.126928588230377	24	0	5	12	0	0	0.746142823539245	1
327	0	[403.10000002384186]	3	0	0.0985313832063767	0.901468616793623	33	0	6	12	0	0	0.802937233587246	1
327	0	[399.60000002384186]	3	0	0.0767881514385094	0.92321184856149	23	1	7	12	0	0	0.846423697122981	1
327	1	[432.60000002384186]	3	1	0.871423209387571	0.128576790612428	9	1	8	12	0	0	0.742846418775143	1
327	0	[453.5]	3	0	0.0934654249347097	0.90653457506529	23	0	9	12	0	0	0.81306915013058	1
327	1	[441.60000002384186]	3	1	0.896537639884751	0.103462360115248	26	0	10	12	0	0	0.793075279769503	1
327	0	[440]	3	0	0.0787238397604717	0.921276160239528	19	1	11	12	0	0	0.842552320479056	1
327	1	[491.60000002384186]	3	1	0.922699529152099	0.0773004708479002	15	1	12	12	0	0	0.845399058304199	1
327	1	[382.2000000476837]	3	1	0.941605414128359	0.0583945858716401	9	1	13	12	0	0	0.883210828256719	1
327	1	[386.89999997615814]	3	1	0.863162951971125	0.136837048028874	6	1	14	12	0	0	0.726325903942251	1
327	1	[425.60000002384186]	3	1	0.853112564085906	0.146887435914093	15	0	15	12	0	0	0.706225128171813	1
327	0	[416.59999990463257]	3	0	0.071582544642641	0.928417455357359	20	0	16	12	0	0	0.856834910714718	1
327	1	[422.59999990463257]	3	0	0.0773868616051622	0.922613138394837	20	0	17	12	0	0	0.845226276789675	0
327	1	[907]	3	1	0.938864571700542	0.0611354282994573	16	1	18	12	0	0	0.877729143401085	1
327	0	[418.2999999523163]	3	0	0.113031304080215	0.886968695919784	12	1	19	12	0	0	0.773937391839569	1
327	0	[433.2000000476837]	3	0	0.130586761815184	0.869413238184815	9	1	20	12	0	0	0.738826476369631	1
327	1	[486.60000002384186]	3	1	0.860463279012836	0.139536720987163	16	0	21	12	0	0	0.720926558025673	1
327	0	[402.10000002384186]	3	0	0.0734881032558649	0.926511896744135	15	1	22	12	0	0	0.85302379348827	1
327	1	[445.10000002384186]	3	1	0.921398539104793	0.0786014608952062	8	1	23	12	0	0	0.842797078209587	1
327	1	[451.7000000476837]	3	1	0.933292572193804	0.0667074278061953	7	1	24	12	0	0	0.866585144387609	1
327	1	[436.2999999523163]	3	1	0.862047058211868	0.137952941788131	3	1	25	12	0	0	0.724094116423737	1
