ID	choice	rt	choice_cond	state	contrast_left	contrast_right	mu	correct	trials	blocks	contrast	congruence	con_diff_choice	ecoperf
377	0	[592.3000000007451]	1	1	0.53298390185865	0.467016098141349	39	1	1	1	0	1	0.065967803717301	0
377	1	[664.4000000003725]	1	0	0.431761498671292	0.568238501328707	43	0	2	1	0	1	0.136477002657415	0
377	0	[551.1999999992549]	1	1	0.555016476377381	0.444983523622618	39	0	3	1	0	1	0.110032952754763	0
377	1	[664.1999999992549]	1	0	0.447404284996832	0.552595715003167	57	0	4	1	0	1	0.105191430006335	0
377	0	[838.0999999996275]	1	0	0.474814799895759	0.52518520010424	59	0	5	1	0	1	0.050370400208481	1
377	1	[560.4000000003725]	1	1	0.575649142612644	0.424350857387355	66	1	6	1	0	1	0.151298285225289	1
377	1	[605.0999999996275]	1	1	0.55613382987725	0.44386617012275	56	0	7	1	0	1	0.1122676597545	1
377	0	[764.7000000011176]	1	0	0.497398015451532	0.502601984548467	65	1	8	1	0	1	0.00520396909693505	1
377	0	[545.7999999988824]	1	0	0.445932710331422	0.554067289668577	76	1	9	1	0	1	0.108134579337155	1
377	1	[839.6000000014901]	1	0	0.499772256038396	0.500227743961603	71	0	10	1	0	1	0.000455487923206987	0
377	0	[496.30000000074506]	1	0	0.433574427202841	0.566425572797158	70	0	11	1	0	1	0.132851145594317	1
377	1	[780.6000000014901]	1	1	0.529709154916537	0.470290845083462	68	1	12	1	0	1	0.0594183098330751	1
377	1	[753.6999999992549]	1	1	0.524738349330787	0.475261650669212	65	0	13	1	0	1	0.049476698661575	1
377	1	[649.1999999992549]	1	1	0.585164483328102	0.414835516671897	78	1	14	1	0	1	0.170328966656205	1
377	1	[553.5999999996275]	1	1	0.536231776772418	0.463768223227581	71	1	15	1	0	1	0.072463553544837	1
377	0	[732]	1	0	0.474053683659837	0.525946316340162	72	1	16	1	0	1	0.051892632680325	1
377	0	[542.6000000014901]	1	0	0.452125971211762	0.547874028788237	73	1	17	1	0	1	0.095748057576475	1
377	0	[570.9000000003725]	1	0	0.478870462674606	0.521129537325393	84	0	18	1	0	1	0.042259074650787	1
377	1	[531.7000000011176]	1	1	0.587820549881865	0.412179450118134	84	1	19	1	0	1	0.175641099763731	1
377	0	[531.3999999985099]	1	0	0.442655864545757	0.557344135454242	82	1	20	1	0	1	0.114688270908485	1
377	0	[519.8000000007451]	1	0	0.402534395996978	0.597465604003021	78	1	21	1	0	1	0.194931208006043	1
377	0	[866.7000000011176]	1	1	0.505769436319537	0.494230563680462	78	0	22	1	0	1	0.011538872639075	0
377	0	[503.90000000037253]	1	0	0.415232970485328	0.584767029514671	78	0	23	1	0	1	0.169534059029343	1
377	1	[533.6999999992549]	1	1	0.586982512035835	0.413017487964164	81	1	24	1	0	1	0.173965024071671	1
377	0	[673.9000000003725]	1	1	0.520230445805926	0.479769554194073	82	1	25	1	0	1	0.040460891611853	0
377	0	[450.69999999925494]	3	1	0.905336270526188	0.0946637294738117	23	1	1	2	1	0	0.810672541052376	1
377	0	[593.0999999996275]	3	1	0.860534203390734	0.139465796609265	13	1	2	2	1	0	0.721068406781469	1
377	1	[411.80000000074506]	3	0	0.106978178327685	0.893021821672314	20	0	3	2	1	0	0.786043643344629	1
377	0	[369.69999999925494]	3	1	0.944091707279812	0.0559082927201876	24	0	4	2	1	0	0.888183414559624	1
377	1	[363.90000000037253]	3	0	0.0617191612259807	0.938280838774019	15	1	5	2	1	0	0.876561677548038	1
377	1	[389.1000000014901]	3	0	0.136816885351358	0.863183114648641	13	1	6	2	1	0	0.726366229297283	1
377	1	[355.7000000011176]	3	0	0.0799121087801321	0.920087891219867	11	0	7	2	1	0	0.840175782439735	1
377	0	[409.90000000037253]	3	1	0.918582680693625	0.0814173193063748	9	1	8	2	1	0	0.83716536138725	1
377	1	[348]	3	0	0.149198664676041	0.850801335323958	10	1	9	2	1	0	0.701602670647917	1
377	1	[341.59999999962747]	3	0	0.135287577296314	0.864712422703685	10	0	10	2	1	0	0.729424845407371	1
377	0	[390.40000000037253]	3	1	0.866596401382465	0.133403598617534	10	1	11	2	1	0	0.733192802764931	1
377	0	[355]	3	1	0.885093100833985	0.114906899166014	9	1	12	2	1	0	0.770186201667971	1
377	0	[424]	3	1	0.930303451336216	0.0696965486637836	9	0	13	2	1	0	0.860606902672432	1
377	1	[330.40000000037253]	3	0	0.0682674256398522	0.931732574360147	9	1	14	2	1	0	0.863465148720295	1
377	0	[306.19999999925494]	3	1	0.93780924098588	0.0621907590141193	9	1	15	2	1	0	0.875618481971761	1
377	1	[417]	3	0	0.142278637094348	0.857721362905651	9	1	16	2	1	0	0.715442725811303	1
377	1	[360.7999999988824]	3	0	0.0882540157587192	0.91174598424128	9	1	17	2	1	0	0.823491968482561	1
377	0	[316.30000000074506]	3	1	0.865490337202644	0.134509662797355	7	1	18	2	1	0	0.730980674405289	1
377	1	[335.90000000037253]	3	0	0.0930960673887589	0.906903932611241	7	1	19	2	1	0	0.813807865222482	1
377	1	[435.7000000011176]	3	0	0.149060937223197	0.850939062776802	5	1	20	2	1	0	0.701878125553605	1
377	1	[360.3999999985099]	3	0	0.112778773321241	0.887221226678758	8	0	21	2	1	0	0.774442453357517	1
377	0	[442.2000000011176]	3	1	0.902522407255874	0.0974775927441257	19	0	22	2	1	0	0.805044814511748	1
377	1	[258.09999999962747]	3	0	0.0958025971199306	0.904197402880069	14	1	23	2	1	0	0.808394805760138	1
377	0	[342.90000000037253]	3	1	0.895259863180738	0.104740136819261	13	1	24	2	1	0	0.790519726361477	1
377	0	[334.40000000037253]	3	1	0.870167007541036	0.129832992458963	12	1	25	2	1	0	0.740334015082073	1
377	0	[478.59999999962747]	3	1	0.914081658656648	0.0859183413433515	60	1	1	3	1	1	0.828163317313297	1
377	0	[335.69999999925494]	3	1	0.924430257016787	0.075569742983212	79	1	2	3	1	1	0.848860514033575	1
377	1	[332.30000000074506]	3	0	0.130271349473467	0.869728650526532	76	0	3	3	1	1	0.739457301053065	1
377	0	[285.90000000037253]	3	1	0.874470297122182	0.125529702877817	70	0	4	3	1	1	0.748940594244365	1
377	0	[327.3999999985099]	3	1	0.945391154657692	0.0546088453423075	79	1	5	3	1	1	0.890782309315384	1
377	1	[324.5]	3	0	0.142146934636248	0.857853065363751	82	1	6	3	1	1	0.715706130727503	1
377	0	[314.80000000074506]	3	1	0.886899879650511	0.113100120349488	78	1	7	3	1	1	0.773799759301023	1
377	1	[517.2000000011176]	3	0	0.0821591485175913	0.917840851482408	78	1	8	3	1	1	0.835681702964817	1
377	0	[444.80000000074506]	3	1	0.905772417918047	0.0942275820819529	82	1	9	3	1	1	0.811544835836094	1
377	1	[333.30000000074506]	3	0	0.053050242148263	0.946949757851737	77	0	10	3	1	1	0.893899515703474	1
377	0	[347.40000000037253]	3	1	0.94384798376276	0.0561520162372398	76	0	11	3	1	1	0.88769596752552	1
377	1	[352.09999999962747]	3	0	0.136621334138798	0.863378665861201	83	1	12	3	1	1	0.726757331722403	1
377	0	[351.5]	3	1	0.922137148174037	0.0778628518259627	84	1	13	3	1	1	0.844274296348074	1
377	1	[327.7000000011176]	3	0	0.0673152361633366	0.932684763836663	81	0	14	3	1	1	0.865369527673326	1
377	1	[312.69999999925494]	3	0	0.14727831398784	0.852721686012159	81	1	15	3	1	1	0.705443372024319	1
377	1	[316.30000000074506]	3	0	0.127626324625951	0.872373675374049	83	1	16	3	1	1	0.744747350748098	1
377	1	[370]	3	0	0.139583979309235	0.860416020690764	84	1	17	3	1	1	0.720832041381529	1
377	1	[342.1000000014901]	3	0	0.111562427806607	0.888437572193392	85	1	18	3	1	1	0.776875144386785	1
377	0	[386.5]	3	1	0.864092163595887	0.135907836404112	85	1	19	3	1	1	0.728184327191775	1
377	0	[364]	3	1	0.911916162401713	0.0880838375982867	78	0	20	3	1	1	0.823832324803426	1
377	0	[322.7000000011176]	3	1	0.942352334735604	0.0576476652643953	80	1	21	3	1	1	0.884704669471209	1
377	0	[359]	3	1	0.87383956089218	0.12616043910782	83	1	22	3	1	1	0.74767912178436	1
377	1	[440.59999999962747]	3	0	0.0884326422136211	0.911567357786378	83	1	23	3	1	1	0.823134715572757	1
377	1	[365.90000000037253]	3	0	0.0511517687509161	0.948848231249083	82	0	24	3	1	1	0.897696462498167	1
377	0	[362.69999999925494]	3	1	0.918610344045313	0.0813896559546861	82	0	25	3	1	1	0.837220688090627	1
377	0	[848.5]	1	0	0.462836473301018	0.537163526698981	59	1	1	4	1	0	0.074327053397963	0
377	0	[645.1000000014901]	1	0	0.461003618296182	0.538996381703817	62	0	2	4	1	0	0.077992763407635	0
377	0	[458.7000000011176]	1	0	0.416920794157884	0.583079205842115	27	0	3	4	1	0	0.166158411684231	0
377	0	[718.2999999988824]	1	0	0.481726424687442	0.518273575312557	70	1	4	4	1	0	0.036547150625115	0
377	1	[804.5]	1	1	0.52424576005301	0.475754239946989	66	0	5	4	1	0	0.048491520106021	0
377	1	[723]	1	1	0.563109198894881	0.436890801105118	66	0	6	4	1	0	0.126218397789763	0
377	0	[559.8000000007451]	1	0	0.429696438629452	0.570303561370547	64	0	7	4	1	0	0.140607122741095	0
377	1	[660.4000000003725]	1	1	0.567339769094787	0.432660230905212	72	1	8	4	1	0	0.134679538189575	0
377	1	[808.7000000011176]	1	1	0.532257219541218	0.467742780458781	70	0	9	4	1	0	0.064514439082437	0
377	0	[561.0999999996275]	1	0	0.449682504024587	0.550317495975412	75	1	10	4	1	0	0.100634991950825	0
377	1	[453.5]	1	1	0.579446421882662	0.420553578117337	74	0	11	4	1	0	0.158892843765325	0
377	1	[762.5]	1	0	0.495348563806706	0.504651436193293	76	1	12	4	1	0	0.009302872386587	1
377	1	[465.80000000074506]	1	1	0.56881143522296	0.431188564777039	75	0	13	4	1	0	0.137622870445921	0
377	0	[615.7000000011176]	1	0	0.484689016497947	0.515310983502052	75	0	14	4	1	0	0.030621967004105	0
377	1	[491.69999999925494]	1	1	0.523737970931931	0.476262029068068	74	1	15	4	1	0	0.0474759418638629	0
377	0	[559.9000000003725]	1	0	0.492045915856287	0.507954084143712	76	0	16	4	1	0	0.015908168287425	0
377	0	[522.2000000011176]	1	0	0.429070551555942	0.570929448444057	81	0	17	4	1	0	0.141858896888115	0
377	0	[675.1999999992549]	1	1	0.517732173794546	0.482267826205453	81	1	18	4	1	0	0.0354643475890929	1
377	0	[418.59999999962747]	1	0	0.44519611693628	0.55480388306372	81	0	19	4	1	0	0.10960776612744	0
377	1	[534.5]	1	1	0.558696613115178	0.441303386884821	81	0	20	4	1	0	0.117393226230357	0
377	1	[579.1000000014901]	1	1	0.532937320397726	0.467062679602273	71	1	21	4	1	0	0.065874640795453	0
377	1	[546.8000000007451]	1	1	0.578470051798086	0.421529948201913	61	0	22	4	1	0	0.156940103596173	0
377	0	[470.1000000014901]	1	0	0.439351522552676	0.560648477447323	62	1	23	4	1	0	0.121296954894647	0
377	1	[530.4000000003725]	1	1	0.522693128431131	0.477306871568868	61	0	24	4	1	0	0.0453862568622631	0
377	0	[482.30000000074506]	1	0	0.419177954631796	0.580822045368203	63	0	25	4	1	0	0.161644090736407	0
377	0	[756.5999999996275]	1	0	0.445859522325729	0.55414047767427	23	1	1	5	1	1	0.108280955348541	0
377	1	[827]	1	0	0.495902649826092	0.504097350173907	24	1	2	5	1	1	0.008194700347815	1
377	1	[583.9000000003725]	1	1	0.56377141641674	0.436228583583259	28	0	3	5	1	1	0.127542832833481	0
377	0	[570.7999999988824]	1	0	0.434089338850594	0.565910661149405	30	0	4	5	1	1	0.131821322298811	0
377	0	[591.3000000007451]	1	0	0.410796164705029	0.58920383529497	24	1	5	5	1	1	0.178407670589941	0
377	1	[720.2999999988824]	1	1	0.531364430332415	0.468635569667584	24	0	6	5	1	1	0.062728860664831	0
377	1	[664.1999999992549]	1	1	0.549200847284692	0.450799152715307	23	1	7	5	1	1	0.098401694569385	0
377	1	[732.5999999996275]	1	1	0.546084670362438	0.453915329637561	22	0	8	5	1	1	0.092169340724877	0
377	0	[634.8000000007451]	1	0	0.435413149867611	0.564586850132388	21	0	9	5	1	1	0.129173700264777	0
377	0	[566.2999999988824]	1	0	0.435360854390513	0.564639145609486	25	1	10	5	1	1	0.129278291218973	0
377	0	[575.0999999996275]	1	0	0.420315327690252	0.579684672309747	27	0	11	5	1	1	0.159369344619495	0
377	0	[955.8999999985099]	1	1	0.523695293915632	0.476304706084367	27	1	12	5	1	1	0.047390587831265	1
377	0	[603.8000000007451]	1	0	0.422533121007725	0.577466878992275	19	0	13	5	1	1	0.15493375798455	0
377	0	[780.2999999988824]	1	0	0.445463078533987	0.554536921466012	21	0	14	5	1	1	0.109073842932025	0
377	1	[619]	1	1	0.584227747950849	0.41577225204915	20	0	15	5	1	1	0.168455495901699	0
377	0	[998.9000000003725]	1	1	0.501699455438257	0.498300544561742	19	0	16	5	1	1	0.003398910876515	1
377	1	[916.1999999992549]	1	1	0.521581946544965	0.478418053455034	20	0	17	5	1	1	0.043163893089931	0
377	1	[822.8000000007451]	1	1	0.524531925361059	0.47546807463894	21	0	18	5	1	1	0.049063850722119	0
377	0	[869.4000000003725]	1	0	0.430279281942261	0.569720718057738	21	0	19	5	1	1	0.139441436115477	0
377	0	[883.2999999988824]	1	0	0.409526305421238	0.590473694578761	21	0	20	5	1	1	0.180947389157523	0
377	0	[644.4000000003725]	1	1	0.57307394663538	0.426926053364619	22	0	21	5	1	1	0.146147893270761	1
377	1	[618.5999999996275]	1	1	0.594195965786366	0.405804034213633	23	0	22	5	1	1	0.188391931572733	0
377	1	[875.1999999992549]	1	1	0.52868093823211	0.471319061767889	22	0	23	5	1	1	0.057361876464221	0
377	0	[794.0999999996275]	1	0	0.457298554099347	0.542701445900652	21	0	24	5	1	1	0.0854028918013049	0
377	0	[872.8000000007451]	1	0	0.479714718879047	0.520285281120952	16	0	25	5	1	1	0.040570562241905	0
377	0	[956.2000000011176]	2	1	0.508315536939991	0.491684463060008	32	1	1	6	1	0	0.016631073879983	1
377	1	[691.5999999996275]	2	0	0.420755394258601	0.579244605741398	30	1	2	6	1	0	0.158489211482797	1
377	0	[692]	2	1	0.50233705218714	0.497662947812859	26	1	3	6	1	0	0.00467410437428095	1
377	0	[693.5]	2	1	0.529354888014451	0.470645111985549	26	1	4	6	1	0	0.058709776028902	1
377	0	[656.0999999996275]	2	1	0.539672329058902	0.460327670941098	24	1	5	6	1	0	0.0793446581178039	1
377	0	[801.3999999985099]	2	0	0.479431365707131	0.520568634292868	22	0	6	6	1	0	0.041137268585737	0
377	0	[568]	2	1	0.565254438382358	0.434745561617641	27	1	7	6	1	0	0.130508876764717	1
377	0	[539.3000000007451]	2	1	0.597269077102726	0.402730922897273	26	1	8	6	1	0	0.194538154205453	1
377	1	[539.0999999996275]	2	0	0.437595036541644	0.562404963458355	19	1	9	6	1	0	0.124809926916711	1
377	0	[543.8000000007451]	2	1	0.543515801592712	0.456484198407288	13	1	10	6	1	0	0.087031603185424	1
377	1	[838.7999999988824]	2	0	0.494070664109298	0.505929335890701	13	1	11	6	1	0	0.011858671781403	1
377	0	[443.5]	2	1	0.563312509545461	0.436687490454539	13	1	12	6	1	0	0.126625019090922	1
377	0	[463.40000000037253]	2	1	0.544219078307851	0.455780921692148	12	1	13	6	1	0	0.088438156615703	1
377	1	[452.1000000014901]	2	0	0.470120565623308	0.529879434376691	12	1	14	6	1	0	0.059758868753383	1
377	0	[478.09999999962747]	2	1	0.531196731953999	0.468803268046	14	1	15	6	1	0	0.062393463907999	1
377	1	[418]	2	0	0.429034277333397	0.570965722666602	13	1	16	6	1	0	0.141931445333205	1
377	1	[468.30000000074506]	2	0	0.446341639159895	0.553658360840104	10	1	17	6	1	0	0.107316721680209	1
377	1	[488.90000000037253]	2	0	0.40295795478797	0.597042045212029	9	1	18	6	1	0	0.194084090424059	1
377	0	[435.09999999962747]	2	1	0.587223561782252	0.412776438217747	10	1	19	6	1	0	0.174447123564505	1
377	1	[447.40000000037253]	2	0	0.442207607106878	0.557792392893121	7	1	20	6	1	0	0.115584785786243	1
377	1	[393.90000000037253]	2	0	0.470493948794554	0.529506051205445	4	1	21	6	1	0	0.0590121024108911	1
377	1	[431]	2	0	0.493296351594671	0.506703648405328	4	1	22	6	1	0	0.013407296810657	1
377	0	[484.7999999988824]	2	1	0.563289570465899	0.4367104295341	6	1	23	6	1	0	0.126579140931799	1
377	1	[637]	2	0	0.475372511714481	0.524627488285518	5	1	24	6	1	0	0.0492549765710369	1
377	1	[508.5]	2	0	0.455057238694857	0.544942761305142	5	1	25	6	1	0	0.089885522610285	1
377	1	[597.7000000011176]	1	0	0.439324837786146	0.560675162213853	41	0	1	7	0	0	0.121350324427707	0
377	0	[567.9000000003725]	1	0	0.495634000656031	0.504365999343969	38	1	2	7	0	0	0.00873199868793795	1
377	1	[983.0999999996275]	1	1	0.518604549758625	0.481395450241374	38	0	3	7	0	0	0.037209099517251	1
377	0	[548.7000000011176]	1	0	0.452998928580031	0.547001071419968	39	0	4	7	0	0	0.094002142839937	1
377	1	[554.2999999988824]	1	1	0.555559374681432	0.444440625318567	22	1	5	7	0	0	0.111118749362865	1
377	0	[461.59999999962747]	1	0	0.441636304697161	0.558363695302838	23	1	6	7	0	0	0.116727390605677	1
377	0	[466.09999999962747]	1	0	0.470611969400772	0.529388030599227	18	1	7	7	0	0	0.058776061198455	1
377	1	[504.69999999925494]	1	1	0.52856891860429	0.471431081395709	12	1	8	7	0	0	0.057137837208581	1
377	0	[440.2000000011176]	1	0	0.443614978448262	0.556385021551737	10	1	9	7	0	0	0.112770043103475	1
377	1	[459.40000000037253]	1	1	0.58441209786637	0.415587902133629	15	0	10	7	0	0	0.168824195732741	1
377	0	[421.40000000037253]	1	0	0.467262185903272	0.532737814096727	10	0	11	7	0	0	0.065475628193455	1
377	1	[473.5]	1	1	0.582891769712197	0.417108230287802	8	1	12	7	0	0	0.165783539424395	1
377	0	[437.8999999985099]	1	0	0.426381698043177	0.573618301956822	9	1	13	7	0	0	0.147236603913645	1
377	1	[798.1999999992549]	1	1	0.533906933733491	0.466093066266508	16	0	14	7	0	0	0.067813867466983	1
377	0	[601.5]	1	1	0.51576878116949	0.484231218830509	7	0	15	7	0	0	0.031537562338981	0
377	0	[688.1999999992549]	1	0	0.480729457001485	0.519270542998514	7	1	16	7	0	0	0.038541085997029	1
377	1	[554.7000000011176]	1	1	0.54845534092731	0.45154465907269	7	1	17	7	0	0	0.09691068185462	1
377	0	[486.8999999985099]	1	0	0.455751296978131	0.544248703021868	9	0	18	7	0	0	0.088497406043737	1
377	0	[438.2999999988824]	1	0	0.458844675521055	0.541155324478944	12	1	19	7	0	0	0.082310648957889	1
377	0	[692.9000000003725]	1	1	0.500283993438514	0.499716006561485	14	0	20	7	0	0	0.000567986877029025	0
377	1	[591.9000000003725]	1	1	0.523081894825887	0.476918105174112	17	1	21	7	0	0	0.046163789651775	1
377	1	[512.7999999988824]	1	1	0.583824717124603	0.416175282875396	13	0	22	7	0	0	0.167649434249207	1
377	0	[432.2000000011176]	1	0	0.400441884092344	0.599558115907655	17	1	23	7	0	0	0.199116231815311	1
377	0	[423.30000000074506]	1	0	0.412941789188907	0.587058210811092	16	0	24	7	0	0	0.174116421622185	1
377	1	[475.5]	1	1	0.518978124959666	0.481021875040333	15	0	25	7	0	0	0.037956249919333	1
377	0	[891.7000000011176]	3	1	0.889895965251996	0.110104034748003	66	1	1	8	0	0	0.779791930503993	0
377	1	[397.5]	3	0	0.0659654894348155	0.934034510565184	64	0	2	8	0	0	0.868069021130369	0
377	0	[366.69999999925494]	3	1	0.939753719196918	0.0602462808030816	60	0	3	8	0	0	0.879507438393836	0
377	0	[363.7000000011176]	3	1	0.876224357552172	0.123775642447827	40	0	4	8	0	0	0.752448715104345	0
377	0	[382.5]	3	0	0.0600430696888183	0.939956930311181	41	1	5	8	0	0	0.879913860622363	1
377	0	[464.8999999985099]	3	0	0.0571638618016462	0.942836138198353	39	0	6	8	0	0	0.885672276396707	1
377	0	[479.7000000011176]	3	0	0.0745579505916697	0.92544204940833	29	1	7	8	0	0	0.85088409881666	1
377	1	[370.3999999985099]	3	1	0.884248107445526	0.115751892554473	31	0	8	8	0	0	0.768496214891053	1
377	1	[366.40000000037253]	3	1	0.858038991591957	0.141961008408042	24	1	9	8	0	0	0.716077983183915	1
377	1	[372.59999999962747]	3	1	0.924194085544022	0.0758059144559777	25	0	10	8	0	0	0.848388171088044	1
377	0	[361.40000000037253]	3	0	0.143827418670357	0.856172581329642	25	1	11	8	0	0	0.712345162659285	1
377	0	[367.09999999962747]	3	0	0.0864439018344794	0.91355609816552	23	1	12	8	0	0	0.827112196331041	1
377	1	[476.5]	3	1	0.945018796542455	0.0549812034575449	22	1	13	8	0	0	0.89003759308491	1
377	1	[396.09999999962747]	3	1	0.935506468479018	0.064493531520981	22	1	14	8	0	0	0.871012936958037	1
377	0	[354.2999999988824]	3	0	0.0596500300537022	0.940349969946297	15	0	15	8	0	0	0.880699939892595	1
377	0	[348.8999999985099]	3	0	0.111848692410594	0.888151307589405	20	1	16	8	0	0	0.776302615178811	1
377	0	[356.7000000011176]	3	0	0.105530608109597	0.894469391890402	19	1	17	8	0	0	0.788938783780805	1
377	1	[318]	3	1	0.86993099616235	0.130069003837649	19	1	18	8	0	0	0.739861992324701	1
377	1	[376.5]	3	1	0.89311283619377	0.106887163806229	20	1	19	8	0	0	0.786225672387541	1
377	0	[339.90000000037253]	3	0	0.0669108564996432	0.933089143500356	19	0	20	8	0	0	0.866178287000713	1
377	1	[390.2999999988824]	3	1	0.916869842178707	0.0831301578212929	22	1	21	8	0	0	0.833739684357414	1
377	1	[359.5]	3	1	0.936841516113298	0.0631584838867016	27	0	22	8	0	0	0.873683032226596	1
377	0	[390.5]	3	0	0.0512761171084655	0.948723882891534	28	1	23	8	0	0	0.897447765783069	1
377	1	[367]	3	1	0.917048161788423	0.0829518382115763	19	1	24	8	0	0	0.834096323576847	1
377	0	[459.69999999925494]	3	0	0.102913679908152	0.897086320091847	23	1	25	8	0	0	0.794172640183695	1
377	1	[665.8000000007451]	3	0	0.141636058984182	0.858363941015817	43	0	1	9	0	1	0.716727882031635	0
377	0	[422.69999999925494]	3	1	0.885832614138437	0.114167385861562	40	1	2	9	0	1	0.771665228276875	0
377	0	[437.69999999925494]	3	1	0.905444446060132	0.094555553939868	39	0	3	9	0	1	0.810888892120264	0
377	0	[623.7000000011176]	3	1	0.943952061553015	0.0560479384469842	37	0	4	9	0	1	0.887904123106031	0
377	0	[529.8999999985099]	3	1	0.903059994924323	0.0969400050756766	38	1	5	9	0	1	0.806119989848646	0
377	1	[891.3000000007451]	3	0	0.120847520328166	0.879152479671833	32	0	6	9	0	1	0.758304959343667	0
377	1	[635.2999999988824]	3	0	0.138997993681986	0.861002006318013	33	1	7	9	0	1	0.722004012636027	0
377	1	[835.2999999988824]	3	0	0.112441096143873	0.887558903856126	31	0	8	9	0	1	0.775117807712253	0
377	1	[740.3999999985099]	3	0	0.0652682823643506	0.934731717635649	30	0	9	9	0	1	0.869463435271298	0
377	0	[810.0999999996275]	3	1	0.948096612279114	0.0519033877208856	28	0	10	9	0	1	0.896193224558228	0
377	1	[740.8000000007451]	3	0	0.0888860434167479	0.911113956583252	44	0	11	9	0	1	0.822227913166504	0
377	1	[536.4000000003725]	3	1	0.890081632054246	0.109918367945753	34	0	12	9	0	1	0.780163264108493	1
377	0	[351.69999999925494]	3	1	0.943227361689565	0.0567726383104345	38	0	13	9	0	1	0.88645472337913	0
377	0	[422.7999999988824]	3	0	0.130103078723641	0.869896921276358	37	0	14	9	0	1	0.739793842552717	1
377	1	[371.19999999925494]	3	0	0.067261982687683	0.932738017312317	38	0	15	9	0	1	0.865476034624634	0
377	0	[355.2999999988824]	3	1	0.870335791501515	0.129664208498484	58	0	16	9	0	1	0.740671583003031	0
377	0	[362.7999999988824]	3	0	0.102166409683622	0.897833590316377	62	1	17	9	0	1	0.795667180632755	1
377	1	[353.6000000014901]	3	1	0.862510449509504	0.137489550490496	66	1	18	9	0	1	0.725020899019008	1
377	1	[411.30000000074506]	3	1	0.88881835671249	0.111181643287509	62	1	19	9	0	1	0.777636713424981	1
377	1	[395.2000000011176]	3	1	0.892752887968446	0.107247112031553	63	1	20	9	0	1	0.785505775936893	1
377	0	[367.09999999962747]	3	0	0.0913389850405295	0.90866101495947	75	0	21	9	0	1	0.817322029918941	1
377	0	[371]	3	0	0.0764079961568983	0.923592003843101	71	1	22	9	0	1	0.847184007686203	1
377	0	[362.7999999988824]	3	0	0.138919923171453	0.861080076828546	71	1	23	9	0	1	0.722160153657093	1
377	1	[346.7000000011176]	3	1	0.919622696284852	0.0803773037151479	76	0	24	9	0	1	0.839245392569704	1
377	1	[362.40000000037253]	3	1	0.860467723539734	0.139532276460265	76	1	25	9	0	1	0.720935447079469	1
377	1	[795.1999999992549]	2	0	0.460218524791632	0.539781475208367	55	0	1	10	0	0	0.0795629504167349	0
377	0	[726.5]	2	1	0.541940657127367	0.458059342872632	57	0	2	10	0	0	0.0838813142547351	0
377	1	[751.2999999988824]	2	1	0.504395556180342	0.495604443819657	61	1	3	10	0	0	0.00879111236068503	1
377	1	[722.5999999996275]	2	0	0.463830647033805	0.536169352966194	59	0	4	10	0	0	0.0723387059323889	0
377	0	[878.8000000007451]	2	0	0.497889582192892	0.502110417807107	59	1	5	10	0	0	0.00422083561421499	1
377	0	[552.1000000014901]	2	1	0.57005746265205	0.429942537347949	61	0	6	10	0	0	0.140114925304101	0
377	0	[893.3000000007451]	2	0	0.485476929837429	0.51452307016257	67	1	7	10	0	0	0.029046140325141	1
377	0	[532.6999999992549]	2	1	0.572912881669419	0.42708711833058	44	0	8	10	0	0	0.145825763338839	0
377	1	[627.2999999988824]	2	1	0.52186929395074	0.478130706049259	37	1	9	10	0	0	0.043738587901481	1
377	1	[549.2000000011176]	2	1	0.541246925516269	0.45875307448373	32	1	10	10	0	0	0.082493851032539	1
377	1	[571.3000000007451]	2	1	0.516327398626829	0.48367260137317	30	1	11	10	0	0	0.032654797253659	1
377	1	[545.5999999996275]	2	1	0.565478860213601	0.434521139786398	24	1	12	10	0	0	0.130957720427203	1
377	1	[469.2999999988824]	2	1	0.581881813702464	0.418118186297536	17	1	13	10	0	0	0.163763627404928	1
377	0	[713.1999999992549]	2	1	0.50971320191815	0.490286798081849	19	0	14	10	0	0	0.019426403836301	0
377	0	[500.5]	2	0	0.435519594870459	0.564480405129541	13	1	15	10	0	0	0.128960810259082	1
377	0	[465.7999999988824]	2	0	0.477337819701557	0.522662180298442	8	1	16	10	0	0	0.045324360596885	1
377	1	[562.1999999992549]	2	1	0.559533131470004	0.440466868529995	15	1	17	10	0	0	0.119066262940009	1
377	1	[448.19999999925494]	2	1	0.59321245788672	0.406787542113279	12	1	18	10	0	0	0.186424915773441	1
377	0	[411.09999999962747]	2	0	0.445388186107757	0.554611813892242	8	1	19	10	0	0	0.109223627784485	1
377	0	[438.8999999985099]	2	0	0.428895256823792	0.571104743176207	8	1	20	10	0	0	0.142209486352415	1
377	0	[449.69999999925494]	2	0	0.426271992853585	0.573728007146414	8	1	21	10	0	0	0.147456014292829	1
377	0	[454.29999999701977]	2	0	0.479167280349954	0.520832719650045	5	1	22	10	0	0	0.041665439300091	1
377	0	[431.5]	2	0	0.429027572671509	0.57097242732849	4	1	23	10	0	0	0.141944854656981	1
377	1	[630.3999999985099]	2	1	0.529630634712231	0.470369365287768	6	1	24	10	0	0	0.059261269424463	1
377	0	[406.6000000014901]	2	0	0.408879650718591	0.591120349281408	7	1	25	10	0	0	0.182240698562817	1
377	0	[803.6999999992549]	2	0	0.463856306365432	0.536143693634567	57	0	1	11	1	1	0.072287387269135	0
377	0	[454.1000000014901]	2	1	0.596147148514099	0.403852851485901	61	1	2	11	1	1	0.192294297028198	1
377	1	[858.6999999992549]	2	0	0.47113733157867	0.528862668421329	69	1	3	11	1	1	0.057725336842659	1
377	1	[537.6000000014901]	2	0	0.47434885494496	0.52565114505504	69	1	4	11	1	1	0.05130229011008	1
377	0	[436.4000000022352]	2	1	0.561055726745089	0.43894427325491	72	1	5	11	1	1	0.122111453490179	1
377	1	[454.5]	2	0	0.447205500060352	0.552794499939647	76	1	6	11	1	1	0.105588999879295	1
377	1	[453.6000000014901]	2	0	0.454717176059582	0.545282823940417	79	1	7	11	1	1	0.090565647880835	1
377	0	[426.3999999985099]	2	1	0.566368321942846	0.433631678057153	79	1	8	11	1	1	0.132736643885693	1
377	0	[401]	2	1	0.557326836276034	0.442673163723965	79	1	9	11	1	1	0.114653672552069	1
377	0	[429.0999999977648]	2	1	0.581574263943743	0.418425736056256	80	1	10	11	1	1	0.163148527887487	1
377	0	[958.8000000007451]	2	0	0.494575139136912	0.505424860863087	85	0	11	11	1	1	0.010849721726175	0
377	1	[542.1999999992549]	2	0	0.443735305091478	0.556264694908521	84	1	12	11	1	1	0.112529389817043	1
377	1	[557.6999999992549]	2	0	0.455277276803161	0.544722723196839	80	1	13	11	1	1	0.089445446393678	1
377	1	[895.7999999970198]	2	0	0.494854415238547	0.505145584761452	81	1	14	11	1	1	0.010291169522905	1
377	0	[531.2999999970198]	2	1	0.599499672740315	0.400500327259684	80	1	15	11	1	1	0.198999345480631	1
377	0	[617.6999999992549]	2	1	0.572365316244124	0.427634683755876	82	1	16	11	1	1	0.144730632488248	1
377	1	[668.6999999992549]	2	0	0.479152686025358	0.520847313974641	75	1	17	11	1	1	0.041694627949283	1
377	0	[671.0999999977648]	2	1	0.555353355329988	0.444646644670011	87	1	18	11	1	1	0.110706710659977	1
377	0	[490.8999999985099]	2	1	0.560099385623339	0.43990061437666	89	1	19	11	1	1	0.120198771246679	1
377	0	[455.29999999701977]	2	1	0.587162170340246	0.412837829659753	84	1	20	11	1	1	0.174324340680493	1
377	0	[420.5999999977648]	2	1	0.592342730360856	0.407657269639143	82	1	21	11	1	1	0.184685460721713	1
377	1	[591.6999999992549]	2	0	0.471389526386141	0.528610473613858	80	1	22	11	1	1	0.057220947227717	1
377	0	[485.3999999985099]	2	1	0.57378142952314	0.426218570476859	86	1	23	11	1	1	0.147562859046281	1
377	1	[580.8000000007451]	2	0	0.490869031974462	0.509130968025537	84	1	24	11	1	1	0.018261936051075	1
377	1	[618.6999999992549]	2	0	0.446269430315715	0.553730569684284	83	1	25	11	1	1	0.107461139368569	1
377	1	[646.3000000007451]	2	0	0.418967872829516	0.581032127170483	62	0	1	12	0	1	0.162064254340967	0
377	1	[513]	2	1	0.544787759804853	0.455212240195146	61	1	2	12	0	1	0.0895755196097069	1
377	1	[506.19999999925494]	2	1	0.536005438773001	0.463994561226999	75	1	3	12	0	1	0.072010877546002	1
377	1	[466.5999999977648]	2	1	0.554906995689693	0.445093004310306	81	1	4	12	0	1	0.109813991379387	1
377	1	[496.69999999925494]	2	1	0.540182742033561	0.459817257966439	82	1	5	12	0	1	0.080365484067122	1
377	0	[459.69999999925494]	2	0	0.448819036347332	0.551180963652667	83	1	6	12	0	1	0.102361927305335	1
377	1	[502.29999999701977]	2	1	0.571662410223599	0.4283375897764	83	1	7	12	0	1	0.143324820447199	1
377	1	[440.20000000298023]	2	1	0.540887434927071	0.459112565072929	87	1	8	12	0	1	0.081774869854142	1
377	0	[404.1000000014901]	2	0	0.469641154147252	0.530358845852747	85	1	9	12	0	1	0.060717691705495	1
377	0	[496.79999999701977]	2	0	0.414200413167776	0.585799586832224	86	1	10	12	0	1	0.171599173664448	1
377	1	[619.8000000007451]	2	1	0.533920523559944	0.466079476440055	89	1	11	12	0	1	0.067841047119889	1
377	0	[493.5999999977648]	2	0	0.424360731840979	0.57563926815902	90	1	12	12	0	1	0.151278536318041	1
377	1	[521.1999999992549]	2	1	0.527649416693621	0.472350583306378	90	1	13	12	0	1	0.055298833387243	1
377	0	[399]	2	0	0.45414076978574	0.545859230214259	92	1	14	12	0	1	0.091718460428519	1
377	0	[424.1000000014901]	2	0	0.443105705177052	0.556894294822947	92	1	15	12	0	1	0.113788589645895	1
377	1	[520.8999999985099]	2	1	0.515970776050125	0.484029223949874	93	1	16	12	0	1	0.031941552100251	1
377	1	[390.8999999985099]	2	1	0.560334525853918	0.439665474146082	90	1	17	12	0	1	0.120669051707836	1
377	0	[444.5999999977648]	2	0	0.449408600335752	0.550591399664247	91	1	18	12	0	1	0.101182799328495	1
377	1	[639.3000000007451]	2	1	0.527324481400787	0.472675518599212	89	1	19	12	0	1	0.0546489628015751	1
377	0	[413.19999999925494]	2	0	0.402457705036345	0.597542294963654	97	1	20	12	0	1	0.195084589927309	1
377	0	[411.4000000022352]	2	0	0.444480373822347	0.555519626177652	100	1	21	12	0	1	0.111039252355305	1
377	0	[411]	2	0	0.479536279851317	0.520463720148682	99	1	22	12	0	1	0.040927440297365	1
377	0	[442.30000000074506]	2	0	0.407883354203021	0.592116645796978	100	1	23	12	0	1	0.184233291593957	1
377	1	[673.0999999977648]	2	1	0.519251548451271	0.480748451548728	100	1	24	12	0	1	0.038503096902543	1
377	1	[464.69999999925494]	2	1	0.537474435313551	0.462525564686448	100	1	25	12	0	1	0.074948870627103	1
