ID	choice	rt	choice_cond	state	contrast_left	contrast_right	mu	correct	trials	blocks	contrast	congruence	con_diff_choice	ecoperf
374	1	[834.7000000178814]	1	0	0.486247893148157	0.513752106851842	44	1	1	1	0	0	0.0275042137036851	0
374	0	[666.6999999880791]	1	0	0.484430883350997	0.515569116649002	43	1	2	1	0	0	0.031138233298005	1
374	0	[526.3000000119209]	1	0	0.42196268126545	0.578037318734549	30	1	3	1	0	0	0.156074637469099	1
374	0	[728.3000000119209]	1	0	0.49491973011227	0.505080269887729	38	0	4	1	0	0	0.0101605397754591	1
374	0	[529.4000000059605]	1	0	0.420052110849578	0.579947889150421	67	1	5	1	0	0	0.159895778300843	1
374	1	[544.1000000238419]	1	1	0.564931647832096	0.435068352167903	56	0	6	1	0	0	0.129863295664193	1
374	0	[544.4000000059605]	1	0	0.403681535832619	0.59631846416738	38	1	7	1	0	0	0.192636928334761	1
374	1	[559]	1	1	0.539919659932782	0.460080340067217	64	1	8	1	0	0	0.079839319865565	1
374	0	[525.2000000178814]	1	0	0.403317599330884	0.596682400669115	35	1	9	1	0	0	0.193364801338231	1
374	0	[474.30000001192093]	1	0	0.406696025983112	0.593303974016887	58	0	10	1	0	0	0.186607948033775	1
374	0	[842.4000000059605]	1	0	0.477120784650249	0.52287921534975	66	1	11	1	0	0	0.045758430699501	1
374	1	[511.40000000596046]	1	1	0.562961405022297	0.437038594977702	49	0	12	1	0	0	0.125922810044595	1
374	1	[653.5]	1	1	0.511615079361898	0.488384920638101	38	1	13	1	0	0	0.023230158723797	1
374	1	[555.1999999880791]	1	1	0.571940219622146	0.428059780377853	67	1	14	1	0	0	0.143880439244293	1
374	1	[625.5,929.5]	1	1	0.586174016867496	0.413825983132503	42	0	15	1	0	0	0.172348033734993	1
374	0	[926.2000000178814]	1	0	0.491191715642875	0.508808284357124	54	0	16	1	0	0	0.017616568714249	1
374	0	[719.5]	1	0	0.459896572527518	0.540103427472481	64	1	17	1	0	0	0.080206854944963	1
374	1	[533.3000000119209]	1	1	0.535588349925387	0.464411650074612	65	1	18	1	0	0	0.071176699850775	1
374	1	[867.5]	1	1	0.577679777358325	0.422320222641674	67	1	19	1	0	0	0.155359554716651	1
374	1	[531.7999999821186,884.5999999940395]	1	1	0.596976821381737	0.403023178618262	39	1	20	1	0	0	0.193953642763475	1
374	1	[792]	1	1	0.511512197735692	0.488487802264307	60	1	21	1	0	0	0.023024395471385	1
374	0	[982.5]	1	0	0.477726592298231	0.522273407701768	53	1	22	1	0	0	0.044546815403537	1
374	1	[598.6999999880791]	1	1	0.553768888961317	0.446231111038682	40	1	23	1	0	0	0.107537777922635	1
374	1	[568.2999999821186]	1	1	0.509195713365212	0.490804286634787	58	0	24	1	0	0	0.018391426730425	1
374	0	[674.5]	1	0	0.481733569478575	0.518266430521424	45	0	25	1	0	0	0.036532861042849	1
374	0	[713.9000000059605]	3	0	0.140500975000771	0.859499024999228	15	1	1	2	0	0	0.718998049998457	1
374	1	[480.90000000596046]	3	1	0.922363291400105	0.0776367085998949	58	0	2	2	0	0	0.84472658280021	1
374	0	[612.5]	3	0	0.111959776303299	0.8880402236967	81	0	3	2	0	0	0.776080447393401	1
374	0	[572.5]	3	0	0.0540181061989028	0.945981893801097	70	1	4	2	0	0	0.891963787602194	1
374	0	[534.8000000119209]	3	0	0.118177023267446	0.881822976732553	16	1	5	2	0	0	0.763645953465107	1
374	1	[530.5]	3	1	0.932367056147893	0.0676329438521061	28	1	6	2	0	0	0.864734112295787	1
374	1	[525.6999999880791]	3	1	0.895991218551464	0.104008781448535	12	0	7	2	0	0	0.791982437102929	1
374	0	[474.40000000596046]	3	0	0.122630204193115	0.877369795806884	29	0	8	2	0	0	0.754739591613769	1
374	1	[749.7000000178814]	3	1	0.945669820565747	0.0543301794342523	80	1	9	2	0	0	0.891339641131495	1
374	0	[643.4000000059605]	3	0	0.0548829466811998	0.9451170533188	80	1	10	2	0	0	0.8902341066376	1
374	1	[658.6999999880791]	3	1	0.891127664648806	0.108872335351193	31	1	11	2	0	0	0.782255329297613	1
374	0	[518.1999999880791]	3	0	0.0640898377562989	0.935910162243701	77	1	12	2	0	0	0.871820324487402	1
374	0	[641.3999999761581]	3	0	0.143098957978864	0.856901042021135	83	1	13	2	0	0	0.713802084042271	1
374	1	[511.39999997615814,877]	3	1	0.949903936897114	0.050096063102885	15	1	14	2	0	0	0.899807873794229	1
374	0	[512.5999999940395]	3	0	0.0819134486587152	0.918086551341284	56	0	15	2	0	0	0.836173102682569	1
374	0	[492.90000000596046]	3	0	0.136489945049399	0.8635100549506	14	1	16	2	0	0	0.727020109901201	1
374	1	[537.6999999880791]	3	1	0.879600212309433	0.120399787690566	14	1	17	2	0	0	0.759200424618867	1
374	1	[590.8999999761581]	3	1	0.89677972651207	0.103220273487929	66	1	18	2	0	0	0.793559453024141	1
374	1	[551.4000000059605]	3	1	0.929593956087395	0.070406043912604	39	1	19	2	0	0	0.859187912174791	1
374	0	[500.40000000596046]	3	0	0.0775209066675372	0.922479093332462	64	0	20	2	0	0	0.844958186664925	1
374	1	[466.2999999821186]	3	1	0.887574838731942	0.112425161268057	83	1	21	2	0	0	0.775149677463885	1
374	1	[486.39999997615814]	3	1	0.929984628154438	0.0700153718455618	43	0	22	2	0	0	0.859969256308876	1
374	1	[517.1999999880791]	3	1	0.893344113324948	0.106655886675051	81	1	23	2	0	0	0.786688226649897	1
374	0	[618.5]	3	0	0.0828268046604142	0.917173195339585	68	1	24	2	0	0	0.834346390679171	1
374	1	[413.5]	3	1	0.920713144506278	0.0792868554937213	48	0	25	2	0	0	0.841426289012557	1
374	1	[783.5]	2	1	0.598388362329038	0.401611637670961	60	0	1	3	1	1	0.196776724658077	0
374	1	[593.3999999761581]	2	1	0.577857953942609	0.42214204605739	58	0	2	3	1	1	0.155715907885219	0
374	1	[815.7000000178814]	2	1	0.555305906436552	0.444694093563447	58	0	3	3	1	1	0.110611812873105	0
374	1	[778.0999999940395]	2	1	0.56802586190769	0.431974138092309	47	0	4	3	1	1	0.136051723815381	0
374	0	[766.3000000119209]	2	1	0.515914691009289	0.48408530899071	50	1	5	3	1	1	0.031829382018579	1
374	0	[680.4000000059605]	2	0	0.452090799983635	0.547909200016364	58	0	6	3	1	1	0.095818400032729	0
374	0	[925.7999999821186]	2	1	0.589978686522198	0.410021313477801	46	1	7	3	1	1	0.179957373044397	1
374	0	[986.9000000059605]	2	1	0.544039846386215	0.455960153613784	77	1	8	3	1	1	0.0880796927724311	1
374	1	[649.5]	2	0	0.430748472750292	0.569251527249707	42	1	9	3	1	1	0.138503054499415	1
374	1	[681.5999999940395]	2	0	0.493900499418688	0.506099500581311	77	1	10	3	1	1	0.012199001162623	1
374	1	[622.7000000178814]	2	0	0.495626441114303	0.504373558885696	66	1	11	3	1	1	0.00874711777139303	1
374	0	[648.6000000238419]	2	1	0.543267779537727	0.456732220462272	70	1	12	3	1	1	0.086535559075455	1
374	1	[756.6000000238419]	2	1	0.512106079093766	0.487893920906233	58	0	13	3	1	1	0.024212158187533	0
374	1	[587.0999999940395]	2	0	0.46353477028173	0.536465229718269	39	1	14	3	1	1	0.072930459436539	1
374	1	[534]	2	0	0.461469151127631	0.538530848872368	75	1	15	3	1	1	0.077061697744737	1
374	1	[516.7000000178814]	2	0	0.403335418899166	0.596664581100833	42	1	16	3	1	1	0.193329162201667	1
374	1	[549.6999999880791]	2	0	0.428296266386676	0.571703733613323	65	1	17	3	1	1	0.143407467226647	1
374	0	[537.6999999880791]	2	1	0.572314643573534	0.427685356426465	37	1	18	3	1	1	0.144629287147069	1
374	1	[462.09999999403954]	2	0	0.412988970431645	0.587011029568355	39	1	19	3	1	1	0.17402205913671	1
374	0	[658.5999999940395]	2	1	0.549555169359582	0.450444830640417	30	1	20	3	1	1	0.099110338719165	1
374	0	[631.8000000119209]	2	1	0.590079053911552	0.409920946088447	38	1	21	3	1	1	0.180158107823105	1
374	1	[726.7000000178814]	2	0	0.457781065054114	0.542218934945885	37	1	22	3	1	1	0.084437869891771	1
374	1	[748]	2	0	0.49596756104659	0.50403243895341	43	1	23	3	1	1	0.00806487790681998	1
374	0	[623.2000000178814]	2	1	0.553004752191038	0.446995247808961	47	1	24	3	1	1	0.106009504382077	1
374	1	[946.7000000178814]	2	0	0.469579061866363	0.530420938133636	60	1	25	3	1	1	0.060841876267273	1
374	0	[757.5999999940395]	1	0	0.419433590280939	0.58056640971906	71	1	1	4	0	1	0.161132819438121	1
374	1	[628.9000000059605]	1	1	0.552172219014396	0.447827780985603	45	0	2	4	0	1	0.104344438028793	1
374	0	[760]	1	0	0.469596910761032	0.530403089238967	63	0	3	4	0	1	0.060806178477935	1
374	0	[928.9000000059605]	1	1	0.531108659134742	0.468891340865257	60	0	4	4	0	1	0.062217318269485	0
374	0	[628]	1	0	0.431867082980944	0.568132917019055	66	1	5	4	0	1	0.136265834038111	1
374	1	[537.9000000059605]	1	1	0.591101109565213	0.408898890434786	60	0	6	4	0	1	0.182202219130427	1
374	1	[540.6000000238419]	1	1	0.584548918943217	0.415451081056782	67	1	7	4	0	1	0.169097837886435	1
374	1	[676.9000000059605]	1	1	0.526445012678396	0.473554987321603	70	1	8	4	0	1	0.052890025356793	1
374	0	[368.69999998807907]	1	0	0.438264560430201	0.561735439569798	66	1	9	4	0	1	0.123470879139597	1
374	0	[667.2999999821186]	1	0	0.416402304718841	0.583597695281159	60	0	10	4	0	1	0.167195390562318	1
374	0	[607.8000000119209]	1	0	0.47231233050531	0.527687669494689	74	1	11	4	0	1	0.055375338989379	1
374	0	[626.1999999880791]	1	0	0.472995652735306	0.527004347264693	71	1	12	4	0	1	0.054008694529387	1
374	0	[538.0999999940395]	1	0	0.419270577402106	0.580729422597893	69	1	13	4	0	1	0.161458845195787	1
374	1	[663]	1	1	0.519009515416305	0.480990484583695	56	0	14	4	0	1	0.03801903083261	1
374	1	[475]	1	1	0.558084959783757	0.441915040216242	71	1	15	4	0	1	0.116169919567515	1
374	0	[838]	1	0	0.498589555569089	0.50141044443091	57	0	16	4	0	1	0.00282088886182097	1
374	0	[744.9000000059605]	1	0	0.436629512397594	0.563370487602405	71	1	17	4	0	1	0.126740975204811	1
374	1	[509.59999999403954]	1	1	0.554647757590923	0.445352242409076	65	1	18	4	0	1	0.109295515181847	1
374	0	[878.5]	1	0	0.441010627097536	0.558989372902463	54	0	19	4	0	1	0.117978745804927	1
374	1	[427.5]	1	1	0.576983072144978	0.423016927855021	69	1	20	4	0	1	0.153966144289957	1
374	1	[965.3999999761581]	1	0	0.497779421124135	0.502220578875864	43	0	21	4	0	1	0.00444115775172904	0
374	0	[442]	1	0	0.432031088263627	0.567968911736372	58	1	22	4	0	1	0.135937823472745	1
374	1	[598.2000000178814]	1	1	0.549116597607283	0.450883402392716	59	1	23	4	0	1	0.098233195214567	1
374	1	[784.7999999821186]	1	1	0.540206400057529	0.45979359994247	58	1	24	4	0	1	0.080412800115059	1
374	0	[876.0999999940395]	1	1	0.50282580984845	0.497174190151549	56	1	25	4	0	1	0.00565161969690103	0
374	0	[450.40000000596046]	2	0	0.431268695545078	0.568731304454921	62	1	1	5	0	1	0.137462608909843	1
374	0	[396.2999999821186]	2	0	0.400452611741279	0.59954738825872	62	1	2	5	0	1	0.199094776517441	1
374	0	[362.7000000178814]	2	0	0.48517081193522	0.51482918806478	58	1	3	5	0	1	0.02965837612956	1
374	1	[621.5999999940395]	2	1	0.524313687026607	0.475686312973392	68	1	4	5	0	1	0.048627374053215	1
374	1	[690.1000000238419]	2	0	0.478852894060178	0.521147105939821	59	0	5	5	0	1	0.0422942118796431	0
374	0	[495.40000000596046]	2	0	0.423214302051745	0.576785697948254	61	1	6	5	0	1	0.153571395896509	1
374	1	[792.3000000119209]	2	1	0.501387988833705	0.498612011166294	58	1	7	5	0	1	0.00277597766741094	1
374	1	[677.1000000238419]	2	1	0.505217208980163	0.494782791019836	59	1	8	5	0	1	0.010434417960327	1
374	0	[450.69999998807907]	2	0	0.46907934835205	0.530920651647949	58	1	9	5	0	1	0.061841303295899	1
374	1	[607.8000000119209]	2	1	0.540990636748608	0.459009363251391	57	1	10	5	0	1	0.081981273497217	1
374	1	[485.10000002384186]	2	1	0.569602613620895	0.430397386379104	70	1	11	5	0	1	0.139205227241791	1
374	1	[683.3000000119209]	2	0	0.496910776330017	0.503089223669982	42	0	12	5	0	1	0.00617844733996498	0
374	1	[500.2000000178814]	2	1	0.590490659215429	0.40950934078457	58	1	13	5	0	1	0.180981318430859	1
374	1	[624.3000000119209]	2	1	0.561606472825022	0.438393527174977	63	1	14	5	0	1	0.123212945650045	1
374	0	[677.7000000178814]	2	0	0.491434044391567	0.508565955608432	65	1	15	5	0	1	0.017131911216865	1
374	1	[533.3000000119209]	2	1	0.563121638735721	0.436878361264278	65	1	16	5	0	1	0.126243277471443	1
374	1	[584.2999999821186]	2	1	0.542914702293981	0.457085297706019	62	1	17	5	0	1	0.085829404587962	1
374	1	[633.0999999940395]	2	1	0.506247827583323	0.493752172416676	62	1	18	5	0	1	0.012495655166647	1
374	1	[578.9000000059605]	2	1	0.565986952688947	0.434013047311052	74	1	19	5	0	1	0.131973905377895	1
374	0	[638.4000000059605]	2	0	0.454180481174317	0.545819518825682	66	1	20	5	0	1	0.0916390376513651	1
374	0	[640.1000000238419]	2	0	0.494772086328027	0.505227913671972	71	1	21	5	0	1	0.010455827343945	1
374	0	[471.2000000178814]	2	0	0.402004137963184	0.597995862036815	65	1	22	5	0	1	0.195991724073631	1
374	0	[431.5]	2	0	0.436903318428659	0.56309668157134	70	1	23	5	0	1	0.126193363142681	1
374	0	[389.10000002384186]	2	0	0.405020336411614	0.594979663588385	66	1	24	5	0	1	0.189959327176771	1
374	1	[483.40000000596046]	2	1	0.550791458132703	0.449208541867296	63	0	25	5	0	1	0.101582916265407	1
374	1	[681.7999999821186]	3	1	0.885561363425048	0.114438636574951	32	0	1	6	1	0	0.771122726850097	0
374	1	[654.2000000178814]	3	0	0.0991371867914535	0.900862813208546	84	0	2	6	1	0	0.801725626417092	1
374	0	[498.90000000596046]	3	0	0.13528811915704	0.864711880842959	36	0	3	6	1	0	0.729423761685919	0
374	0	[483.59999999403954]	3	0	0.051588507162109	0.948411492837891	75	1	4	6	1	0	0.896822985675782	0
374	0	[454.2000000178814]	3	0	0.119616680426579	0.88038331957342	32	0	5	6	1	0	0.760766639146841	0
374	1	[652.0999999940395]	3	1	0.933458237513261	0.0665417624867384	73	1	6	6	1	0	0.866916475026523	0
374	0	[419.09999999403954]	3	1	0.883494272184578	0.116505727815421	43	1	7	6	1	0	0.766988544369157	1
374	1	[340.2000000178814]	3	1	0.908630968164989	0.0913690318350102	29	0	8	6	1	0	0.817261936329979	0
374	1	[658]	3	1	0.85062334249929	0.149376657500709	86	1	9	6	1	0	0.701246684998581	0
374	1	[488.89999997615814]	3	1	0.876938428856224	0.123061571143775	36	0	10	6	1	0	0.753876857712449	0
374	0	[476.89999997615814]	3	0	0.109433266947619	0.89056673305238	45	0	11	6	1	0	0.781133466104761	0
374	1	[535.2000000178814]	3	1	0.874691806915162	0.125308193084837	45	0	12	6	1	0	0.749383613830325	0
374	0	[532.9000000059605]	3	1	0.852320547535909	0.14767945246409	43	1	13	6	1	0	0.704641095071819	1
374	0	[984.7999999821186]	3	0	0.0535779619556773	0.946422038044322	77	1	14	6	1	0	0.892844076088645	0
374	0	[506.2000000178814]	3	0	0.0559190990401839	0.944080900959816	36	0	15	6	1	0	0.888161801919632	0
374	0	[742]	3	0	0.0566047321494858	0.943395267850514	43	0	16	6	1	0	0.886790535701028	0
374	0	[646.9000000059605]	3	1	0.892401652935047	0.107598347064952	75	0	17	6	1	0	0.784803305870095	1
374	0	[799.1000000238419]	3	1	0.948753172190298	0.0512468278097018	35	1	18	6	1	0	0.897506344380596	1
374	0	[629.0999999940395]	3	1	0.866217657633858	0.133782342366141	72	0	19	6	1	0	0.732435315267717	1
374	0	[846.4000000059605]	3	0	0.125762916576253	0.874237083423747	34	0	20	6	1	0	0.748474166847494	0
374	1	[838.7999999821186]	3	0	0.107625597526644	0.892374402473355	36	1	21	6	1	0	0.784748804946711	1
374	0	[896.1000000238419]	3	1	0.862206903718786	0.137793096281213	38	1	22	6	1	0	0.724413807437573	1
374	1	[906.4000000059605]	3	0	0.120903482717654	0.879096517282346	34	1	23	6	1	0	0.758193034564692	1
374	0	[755.3999999761581]	3	0	0.0938886863598001	0.906111313640199	76	1	24	6	1	0	0.812222627280399	0
374	0	[612]	3	1	0.922336083509415	0.0776639164905846	39	1	25	6	1	0	0.84467216701883	1
374	1	[731.4000000059605]	1	1	0.531668037474472	0.468331962525527	36	0	1	7	1	1	0.063336074948945	0
374	0	[599]	1	0	0.406849723654768	0.593150276345231	44	1	2	7	1	1	0.186300552690463	0
374	0	[707.7999999821186]	1	0	0.430977881692062	0.569022118307937	46	0	3	7	1	1	0.138044236615875	0
374	1	[717.5999999940395]	1	0	0.494871087935867	0.505128912064132	39	0	4	7	1	1	0.010257824128265	1
374	1	[672.8000000119209]	1	0	0.496470967465658	0.503529032534341	55	1	5	7	1	1	0.00705806506868301	1
374	1	[558.5]	1	1	0.556591148160453	0.443408851839546	42	1	6	7	1	1	0.113182296320907	0
374	1	[498.7999999821186]	1	1	0.50507985852486	0.494920141475139	34	0	7	7	1	1	0.010159717049721	0
374	1	[710.4000000059605]	1	1	0.501113100304704	0.498886899695295	36	0	8	7	1	1	0.00222620060940903	0
374	0	[505.80000001192093]	1	0	0.411230088183877	0.588769911816122	57	0	9	7	1	1	0.177539823632245	0
374	1	[893.5]	1	1	0.560608083256858	0.439391916743141	57	1	10	7	1	1	0.121216166513717	0
374	0	[862.6999999880791]	1	0	0.46226440784267	0.537735592157329	59	1	11	7	1	1	0.075471184314659	0
374	1	[614.6000000238419]	1	1	0.561516315919072	0.438483684080927	54	0	12	7	1	1	0.123032631838145	0
374	0	[974.6999999880791]	1	0	0.430742231601826	0.569257768398173	44	0	13	7	1	1	0.138515536796347	0
374	1	[569.4000000059605,749.4000000059605]	1	1	0.56028758630238	0.439712413697619	63	0	14	7	1	1	0.120575172604761	0
374	1	[641.2000000178814]	1	1	0.514925336223716	0.485074663776284	57	0	15	7	1	1	0.0298506724474319	0
374	1	[604.3999999761581]	1	0	0.405766531202263	0.594233468797736	64	1	16	7	1	1	0.188466937595473	1
374	0	[638.1999999880791]	1	1	0.589392421216771	0.410607578783228	58	0	17	7	1	1	0.178784842433543	1
374	0	[680.9000000059605]	1	0	0.488142765115182	0.511857234884817	42	0	18	7	1	1	0.023714469769635	0
374	0	[457.40000000596046]	1	0	0.402384221712336	0.597615778287663	57	0	19	7	1	1	0.195231556575327	0
374	0	[603]	1	1	0.594857395692535	0.405142604307464	66	1	20	7	1	1	0.189714791385071	1
374	0	[545.8000000119209]	1	1	0.572293952753138	0.427706047246861	44	0	21	7	1	1	0.144587905506277	1
374	0	[759.8999999761581]	1	0	0.492665298608729	0.50733470139127	41	0	22	7	1	1	0.014669402782541	0
374	0	[693.5]	1	0	0.479269368889506	0.520730631110493	42	1	23	7	1	1	0.041461262220987	0
374	0	[906.0999999940395]	1	1	0.506080760446978	0.493919239553021	61	1	24	7	1	1	0.0121615208939571	1
374	0	[958.6999999880791]	1	1	0.57584555183251	0.424154448167489	60	1	25	7	1	1	0.151691103665021	1
374	0	[908.5999999940395]	3	1	0.915557999159567	0.0844420008404323	33	1	1	8	0	1	0.831115998319135	0
374	1	[702.2000000178814]	3	0	0.10363509424701	0.896364905752989	69	0	2	8	0	1	0.792729811505979	0
374	0	[556.4000000059605]	3	0	0.0971566717203723	0.902843328279627	37	0	3	8	0	1	0.805686656559255	1
374	1	[543.4000000059605]	3	1	0.882683761527922	0.117316238472077	73	1	4	8	0	1	0.765367523055845	1
374	1	[610.5]	3	1	0.886435871866286	0.113564128133713	34	0	5	8	0	1	0.772871743732573	1
374	0	[466.5]	3	0	0.110795028009962	0.889204971990037	85	1	6	8	0	1	0.778409943980075	1
374	1	[426.7000000178814]	3	0	0.0994015064358989	0.900598493564101	73	0	7	8	0	1	0.801196987128202	0
374	0	[544.0999999940395]	3	0	0.0687740663930206	0.931225933606979	64	0	8	8	0	1	0.862451867213958	1
374	0	[429.80000001192093]	3	0	0.126061136126971	0.873938863873028	72	1	9	8	0	1	0.747877727746057	1
374	0	[427.59999999403954]	3	0	0.141634095840984	0.858365904159015	77	1	10	8	0	1	0.716731808318031	1
374	0	[431.2999999821186]	3	0	0.0790546939830873	0.920945306016912	86	1	11	8	0	1	0.841890612033825	1
374	1	[530.5999999940395]	3	1	0.947931889922061	0.0520681100779383	90	1	12	8	0	1	0.895863779844123	1
374	1	[426.90000000596046]	3	1	0.906507708155061	0.0934922918449385	87	1	13	8	0	1	0.813015416310123	1
374	1	[832.5]	3	0	0.0665628463253293	0.93343715367467	12	1	14	8	0	1	0.866874307349341	0
374	1	[737.6000000238419]	3	0	0.079017090076873	0.920982909923126	66	0	15	8	0	1	0.841965819846253	0
374	0	[771.6000000238419]	3	1	0.941960627365439	0.0580393726345601	9	1	16	8	0	1	0.883921254730879	0
374	1	[784.5]	3	0	0.0565231763555212	0.943476823644478	27	1	17	8	0	1	0.886953647288957	0
374	0	[753.6000000238419]	3	1	0.88431574907172	0.115684250928279	64	0	18	8	0	1	0.768631498143441	0
374	0	[826.1000000238419]	3	1	0.921979010066961	0.0780209899330384	63	0	19	8	0	1	0.843958020133923	0
374	0	[723.9000000059605]	3	1	0.886599394035273	0.113400605964726	63	0	20	8	0	1	0.773198788070547	0
374	0	[782.5]	3	0	0.0996565652508147	0.900343434749185	75	1	21	8	0	1	0.80068686949837	1
374	0	[841.0999999940395]	3	1	0.946777556344585	0.053222443655414	66	0	22	8	0	1	0.893555112689171	0
374	0	[609.7000000178814]	3	0	0.110801816893512	0.889198183106487	76	1	23	8	0	1	0.778396366212975	1
374	0	[789]	3	1	0.939855975398497	0.0601440246015027	64	0	24	8	0	1	0.879711950796994	0
374	1	[868]	3	1	0.858959214913314	0.141040785086685	78	0	25	8	0	1	0.717918429826629	1
374	1	[674.5999999940395]	2	1	0.546554934444821	0.453445065555178	45	1	1	9	0	0	0.093109868889643	1
374	0	[777.8999999761581]	2	0	0.419889003046082	0.580110996953917	55	1	2	9	0	0	0.160221993907835	1
374	0	[688.5]	2	0	0.423135667992456	0.576864332007543	NaN	1	3	9	0	0	0.153728664015087	1
374	0	[992.5999999940395]	2	1	0.501845026640769	0.498154973359231	54	0	4	9	0	0	0.00369005328153804	0
374	1	[838.9000000059605]	2	1	0.512615348388612	0.487384651611387	58	1	5	9	0	0	0.025230696777225	1
374	0	[803.4000000059605]	2	1	0.50070334846356	0.49929665153644	56	0	6	9	0	0	0.00140669692712003	0
374	0	[613.9000000059605]	2	0	0.409950676234118	0.590049323765881	32	1	7	9	0	0	0.180098647531763	1
374	0	[666]	2	0	0.475265346099398	0.524734653900601	61	1	8	9	0	0	0.049469307801203	1
374	1	[976.8000000119209]	2	0	0.496642806320434	0.503357193679565	50	0	9	9	0	0	0.00671438735913099	0
374	1	[931.3000000119209]	2	0	0.457603617233179	0.54239638276682	39	0	10	9	0	0	0.084792765533641	0
374	1	[754.1999999880791]	2	1	0.527432598274532	0.472567401725467	36	1	11	9	0	0	0.054865196549065	1
374	1	[657.4000000059605]	2	1	0.592420699905346	0.407579300094653	39	1	12	9	0	0	0.184841399810693	1
374	0	[700.7000000178814]	2	0	0.466158187575608	0.533841812424392	41	1	13	9	0	0	0.067683624848784	1
374	0	[516.8999999761581]	2	0	0.417097573634334	0.582902426365666	60	1	14	9	0	0	0.165804852731332	1
374	0	[698.5999999940395]	2	0	0.449432611282844	0.550567388717155	47	1	15	9	0	0	0.101134777434311	1
374	0	[507.69999998807907]	2	0	0.40280522491802	0.597194775081979	66	1	16	9	0	0	0.194389550163959	1
374	1	[649.0999999940395]	2	1	0.547041606987344	0.452958393012655	38	1	17	9	0	0	0.0940832139746891	1
374	1	[562.7999999821186]	2	1	0.571221110646745	0.428778889353254	40	1	18	9	0	0	0.142442221293491	1
374	0	[859]	2	1	0.501338515306103	0.498661484693896	60	0	19	9	0	0	0.00267703061220698	0
374	0	[471.69999998807907]	2	0	0.458104087482389	0.541895912517611	61	1	20	9	0	0	0.083791825035222	1
374	0	[533.6999999880791]	2	0	0.434676108466956	0.565323891533043	38	1	21	9	0	0	0.130647783066087	1
374	0	[732.5999999940395]	2	1	0.500157639948409	0.49984236005159	50	0	22	9	0	0	0.00031527989681901	0
374	1	[664]	2	1	0.560428032375088	0.439571967624911	59	1	23	9	0	0	0.120856064750177	1
374	1	[715.9000000059605]	2	1	0.520019193455453	0.479980806544546	43	1	24	9	0	0	0.040038386910907	1
374	1	[670.9000000059605]	2	1	0.577316490584484	0.422683509415515	40	0	25	9	0	0	0.154632981168969	1
374	1	[423.59999999403954]	3	1	0.944831417228608	0.0551685827713915	68	0	1	10	1	1	0.889662834457217	0
374	0	[630.2999999821186]	3	1	0.908368986429052	0.0916310135709478	63	0	2	10	1	1	0.816737972858104	1
374	0	[631.5]	3	0	0.14669240192168	0.853307598078319	38	0	3	10	1	1	0.706615196156639	0
374	0	[629.9000000059605]	3	1	0.918082675928325	0.0819173240716742	68	1	4	10	1	1	0.836165351856651	1
374	0	[577.1999999880791]	3	0	0.129927475255605	0.870072524744394	39	1	5	10	1	1	0.740145049488789	0
374	1	[603]	3	1	0.90012267690758	0.0998773230924199	60	0	6	10	1	1	0.80024535381516	0
374	1	[566.9000000059605]	3	0	0.135673220065617	0.864326779934382	56	1	7	10	1	1	0.728653559868765	1
374	0	[506.09999999403954]	3	0	0.078081847582005	0.921918152417994	54	0	8	10	1	1	0.843836304835989	0
374	1	[667.8000000119209]	3	0	0.0698408923337112	0.930159107666288	56	0	9	10	1	1	0.860318215332577	1
374	0	[746.3000000119209]	3	1	0.879653778614108	0.120346221385891	57	0	10	10	1	1	0.759307557228217	1
374	1	[636.8000000119209]	3	1	0.880073907499544	0.119926092500455	56	0	11	10	1	1	0.760147814999089	0
374	0	[516.9000000059605]	3	1	0.93096408584684	0.06903591415316	67	1	12	10	1	1	0.86192817169368	1
374	0	[521.1000000238419]	3	1	0.860952718541394	0.139047281458605	76	1	13	10	1	1	0.721905437082789	1
374	1	[595.2999999821186]	3	0	0.108387270858953	0.891612729141046	73	1	14	10	1	1	0.783225458282093	1
374	1	[509.69999998807907]	3	0	0.0976466648529174	0.902353335147082	76	1	15	10	1	1	0.804706670294165	1
374	0	[635.2000000178814]	3	1	0.93585138578328	0.06414861421672	64	0	16	10	1	1	0.87170277156656	1
374	0	[738]	3	1	0.945416967127312	0.0545830328726879	66	1	17	10	1	1	0.890833934254624	1
374	0	[680]	3	0	0.113972563123205	0.886027436876794	63	0	18	10	1	1	0.772054873753589	0
374	1	[664]	3	0	0.0603341734949543	0.939665826505045	69	1	19	10	1	1	0.879331653010091	1
374	0	[510.80000001192093]	3	1	0.89281003270993	0.107189967290069	60	0	20	10	1	1	0.785620065419861	1
374	0	[706.3999999761581]	3	0	0.142817158497618	0.857182841502381	64	0	21	10	1	1	0.714365683004763	0
374	0	[683]	3	1	0.929161005339248	0.0708389946607519	66	1	22	10	1	1	0.858322010678496	1
374	0	[569.9000000059605]	3	1	0.930428611248488	0.0695713887515114	75	1	23	10	1	1	0.860857222496977	1
374	1	[561.7999999821186]	3	0	0.0773850590616945	0.922614940938305	61	0	24	10	1	1	0.845229881876611	1
374	1	[703.0999999940395]	3	0	0.056532681481918	0.943467318518082	62	0	25	10	1	1	0.886934637036164	1
374	0	[551.7999999821186]	2	0	0.468158575954286	0.531841424045713	50	0	1	11	1	0	0.063682848091427	0
374	1	[624.8999999761581]	2	1	0.541054234419198	0.458945765580801	50	0	2	11	1	0	0.082108468838397	0
374	0	[803.5]	2	1	0.507835362265849	0.49216463773415	62	1	3	11	1	0	0.015670724531699	1
374	1	[811.8999999761581]	2	1	0.548953688157373	0.451046311842626	67	0	4	11	1	0	0.097907376314747	0
374	1	[709.1999999880791]	2	0	0.49752650935961	0.502473490640389	71	1	5	11	1	0	0.00494698128077903	1
374	1	[592]	2	1	0.554727983888455	0.445272016111544	68	0	6	11	1	0	0.109455967776911	0
374	0	[848.3999999761581]	2	0	0.482147105409903	0.517852894590096	75	0	7	11	1	0	0.035705789180193	0
374	0	[582.5]	2	0	0.418695049299532	0.581304950700467	65	0	8	11	1	0	0.162609901400935	0
374	1	[589.8000000119209]	2	0	0.438526723630325	0.561473276369674	40	1	9	11	1	0	0.122946552739349	1
374	1	[540.6999999880791]	2	0	0.458334050708578	0.541665949291421	39	1	10	11	1	0	0.083331898582843	1
374	1	[550.0999999940395]	2	0	0.421760067355674	0.578239932644325	42	1	11	11	1	0	0.156479865288651	1
374	1	[477.90000000596046]	2	0	0.444866154353493	0.555133845646506	42	1	12	11	1	0	0.110267691293013	1
374	0	[558]	2	1	0.561974666816288	0.438025333183711	40	1	13	11	1	0	0.123949333632577	1
374	0	[913.1999999880791]	2	1	0.573011438109913	0.426988561890086	39	1	14	11	1	0	0.146022876219827	1
374	1	[745.6999999880791]	2	0	0.449495319788209	0.55050468021179	38	1	15	11	1	0	0.101009360423581	1
374	0	[614.8999999761581]	2	1	0.541021498170128	0.458978501829871	41	1	16	11	1	0	0.082042996340257	1
374	1	[740.1999999880791]	2	0	0.421768547596854	0.578231452403146	40	1	17	11	1	0	0.156462904806292	1
374	1	[663.0999999940395]	2	0	0.426582409194957	0.573417590805042	36	1	18	11	1	0	0.146835181610085	1
374	0	[457.90000000596046]	2	1	0.560053156784015	0.439946843215984	31	1	19	11	1	0	0.120106313568031	1
374	0	[710.0999999940395]	2	1	0.534159702563904	0.465840297436095	16	1	20	11	1	0	0.068319405127809	1
374	0	[875.8000000119209]	2	1	0.519428753827057	0.480571246172942	13	1	21	11	1	0	0.038857507654115	1
374	0	[690.4000000059605]	2	1	0.573113129935049	0.42688687006495	32	1	22	11	1	0	0.146226259870099	1
374	0	[477]	2	1	0.559946490259873	0.440053509740126	38	1	23	11	1	0	0.119892980519747	1
374	0	[927.1000000238419]	2	0	0.488235661562053	0.511764338437946	33	0	24	11	1	0	0.023528676875893	0
374	1	[622]	2	0	0.405303546146153	0.594696453853846	32	0	25	11	1	0	0.189392907707693	1
374	0	[628.2000000178814]	1	1	0.580992676514358	0.419007323485641	38	1	1	12	1	0	0.161985353028717	1
374	0	[576.2999999821186]	1	1	0.529148920290407	0.470851079709592	42	0	2	12	1	0	0.0582978405808151	1
374	0	[749.0999999940395]	1	1	0.520488198927195	0.479511801072804	40	1	3	12	1	0	0.040976397854391	1
374	1	[832.2999999821186]	1	0	0.477709671483145	0.522290328516854	41	0	4	12	1	0	0.0445806570337089	1
374	0	[541.9000000059605]	1	1	0.54737605507631	0.452623944923689	34	1	5	12	1	0	0.094752110152621	1
374	1	[774.2000000178814]	1	0	0.497567358910317	0.502432641089682	41	1	6	12	1	0	0.00486528217936499	1
374	1	[534.1000000238419]	1	0	0.430764124463202	0.569235875536797	40	0	7	12	1	0	0.138471751073595	1
374	1	[570.2999999821186,923.0999999940395]	1	0	0.434411095784856	0.565588904215143	31	1	8	12	1	0	0.131177808430287	1
374	0	[671.5]	1	1	0.556254428943219	0.44374557105678	41	0	9	12	1	0	0.112508857886439	1
374	0	[591.1999999880791]	1	1	0.582478798701853	0.417521201298147	36	1	10	12	1	0	0.164957597403706	1
374	1	[651]	1	0	0.403937843870377	0.596062156129622	37	1	11	12	1	0	0.192124312259245	1
374	0	[765]	1	1	0.514378893282048	0.485621106717951	29	1	12	12	1	0	0.028757786564097	1
374	1	[773.2999999821186]	1	0	0.497222719631119	0.50277728036888	42	0	13	12	1	0	0.00555456073776101	1
374	0	[697.5]	1	1	0.51894704013502	0.481052959864979	37	1	14	12	1	0	0.037894080270041	1
374	1	[846.2999999821186]	1	0	0.497359075461209	0.502640924538791	41	1	15	12	1	0	0.00528184907758195	1
374	1	[578.7999999821186]	1	0	0.421353387790143	0.578646612209856	37	1	16	12	1	0	0.157293224419713	1
374	1	[837.1999999880791]	1	0	0.4540491732672	0.545950826732799	43	1	17	12	1	0	0.091901653465599	1
374	0	[913.0999999940395]	1	1	0.512702019347436	0.487297980652563	43	0	18	12	1	0	0.025404038694873	1
374	0	[932.3000000119209]	1	1	0.50150109124631	0.498498908753689	40	1	19	12	1	0	0.00300218249262102	1
374	0	[707.3000000119209]	1	1	0.539770606463506	0.460229393536493	33	0	20	12	1	0	0.079541212927013	1
374	0	[616.1999999880791]	1	1	0.585307976435534	0.414692023564465	26	1	21	12	1	0	0.170615952871069	1
374	1	[584.0999999940395]	1	0	0.439181731454484	0.560818268545515	14	1	22	12	1	0	0.121636537091031	1
374	1	[898.0999999940395]	1	1	0.546919498135726	0.453080501864273	32	0	23	12	1	0	0.093838996271453	0
374	0	[809]	1	0	0.494347547638721	0.505652452361278	33	0	24	12	1	0	0.011304904722557	0
374	0	[473.19999998807907]	1	0	0.443960249101518	0.556039750898481	58	1	25	12	1	0	0.112079501796963	0
