ID	choice	rt	condition_int	state	contrast_left	contrast_right	reward	trials	blocks	contrast	ecoperf
95	1	663	1	0	0.481400586876261	0.518599413123738	1	1	1	1	1
95	0	715	1	0	0.49613723859527	0.503862761404729	1	2	1	1	0
95	0	553	1	0	0.436343486633092	0.563656513366907	1	3	1	1	0
95	0	586	1	0	0.446230936071942	0.553769063928057	1	4	1	1	0
95	1	544	1	1	0.567475917052196	0.432524082947803	0	5	1	1	0
95	0	467	1	1	0.54070355130578	0.459296448694219	0	6	1	1	1
95	1	570	1	1	0.570253316934873	0.429746683065127	0	7	1	1	0
95	0	491	1	1	0.545807170660678	0.454192829339321	0	8	1	1	1
95	0	411	1	0	0.491975969113155	0.508024030886844	1	9	1	1	0
95	1	486	1	0	0.443037120576497	0.556962879423502	1	10	1	1	1
95	1	881	1	0	0.481677122590917	0.518322877409082	1	11	1	1	1
95	0	391	1	1	0.562520459830154	0.437479540169845	0	12	1	1	1
95	0	328	1	1	0.565806114674472	0.434193885325527	0	13	1	1	1
95	1	518	1	1	0.573028456650181	0.426971543349818	0	14	1	1	0
95	1	620	1	0	0.48689944914758	0.513100550852419	1	15	1	1	1
95	0	474	1	0	0.472218020957557	0.527781979042443	1	16	1	1	0
95	1	856	1	0	0.499972122194315	0.500027877805684	1	17	1	1	1
95	0	423	1	0	0.498614911905932	0.501385088094067	1	18	1	1	0
95	0	649	1	1	0.516847322332259	0.48315267766774	0	19	1	1	1
95	1	536	1	0	0.484347114439947	0.515652885560053	1	20	1	1	1
95	1	419	1	1	0.56337486688466	0.436625133115339	0	21	1	1	0
95	1	464	1	1	0.57864544663989	0.421354553360109	0	22	1	1	0
95	0	569	1	0	0.476158096122196	0.523841903877803	1	23	1	1	0
95	1	333	1	1	0.503675482075949	0.49632451792405	0	24	1	1	0
95	0	302	1	1	0.576747494410665	0.423252505589334	0	25	1	1	1
95	0	432	4	1	0.828112811467916	0.171887188532083	1	1	2	0	0
95	0	589	4	0	0.157805878590995	0.842194121409004	0	2	2	0	1
95	1	625	4	0	0.128711404098069	0.87128859590193	0	3	2	0	0
95	1	558	4	1	0.827710685619283	0.172289314380716	1	4	2	0	1
95	0	915	4	0	0.144553618956338	0.855446381043661	0	5	2	0	1
95	1	401	4	0	0.198549741628524	0.801450258371475	0	6	2	0	0
95	0	444	4	0	0.138476951552373	0.861523048447627	0	7	2	0	1
95	1	546	4	1	0.810513674845466	0.189486325154533	1	8	2	0	1
95	1	388	4	1	0.830917110069793	0.169082889930206	1	9	2	0	1
95	0	401	4	0	0.122419718378915	0.877580281621084	0	10	2	0	1
95	0	552	4	0	0.169450439681607	0.830549560318392	0	11	2	0	1
95	1	475	4	1	0.840700457973397	0.159299542026602	1	12	2	0	1
95	1	486	4	1	0.837549410936295	0.162450589063704	1	13	2	0	1
95	0	409	4	0	0.164662107698041	0.835337892301958	0	14	2	0	1
95	0	425	4	0	0.137932859000595	0.862067140999404	0	15	2	0	1
95	0	380	4	0	0.176420419692034	0.823579580307965	0	16	2	0	1
95	1	493	4	1	0.874346244663644	0.125653755336355	1	17	2	0	1
95	1	510	4	1	0.844195182703211	0.155804817296788	1	18	2	0	1
95	1	578	4	1	0.861492720015688	0.138507279984311	1	19	2	0	1
95	0	439	4	0	0.195157629355891	0.804842370644108	0	20	2	0	1
95	0	441	4	0	0.142239276988099	0.8577607230119	0	21	2	0	1
95	1	471	4	1	0.816992488559626	0.183007511440373	1	22	2	0	1
95	1	470	4	1	0.851712564427288	0.148287435572711	1	23	2	0	1
95	0	433	4	0	0.129890989397336	0.870109010602663	0	24	2	0	1
95	1	357	4	1	0.827255364325743	0.172744635674256	1	25	2	0	1
95	0	375	3	0	0.157039870955634	0.842960129044365	1	1	3	1	0
95	1	406	3	1	0.808868255729535	0.191131744270464	0	2	3	1	0
95	1	805	3	1	0.85962814221961	0.140371857780389	0	3	3	1	0
95	1	864	3	0	0.170111024328625	0.829888975671374	1	4	3	1	1
95	1	737	3	1	0.858631966544895	0.141368033455104	0	5	3	1	0
95	0	388	3	1	0.867931716417321	0.132068283582678	0	6	3	1	1
95	1	421	3	1	0.823474241841867	0.176525758158132	0	7	3	1	0
95	1	759	3	0	0.134847002843261	0.865152997156738	1	8	3	1	1
95	1	776	3	1	0.85900754420606	0.14099245579394	0	9	3	1	0
95	1	612	3	0	0.16073916412365	0.839260835876349	1	10	3	1	1
95	1	556	3	0	0.144622177356148	0.855377822643851	1	11	3	1	1
95	0	763	3	0	0.183724887416951	0.816275112583048	1	12	3	1	0
95	1	356	3	0	0.164755578921318	0.835244421078681	1	13	3	1	1
95	1	450	3	1	0.843323898259224	0.156676101740775	0	14	3	1	0
95	1	954	3	0	0.167012011329249	0.83298798867075	1	15	3	1	1
95	0	349	3	1	0.803178051336594	0.196821948663405	0	16	3	1	1
95	0	353	3	0	0.158071143847395	0.841928856152604	1	17	3	1	0
95	0	542	3	1	0.825566734040764	0.174433265959235	0	18	3	1	1
95	1	367	3	1	0.85460444712758	0.14539555287242	0	19	3	1	0
95	0	284	3	1	0.879230286835209	0.12076971316479	0	20	3	1	1
95	1	302	3	1	0.801620549270083	0.198379450729917	0	21	3	1	0
95	0	370	3	0	0.141475244310907	0.858524755689092	1	22	3	1	0
95	0	954	3	0	0.152702208762103	0.847297791237897	1	23	3	1	0
95	1	298	3	0	0.174929294430432	0.825070705569567	1	24	3	1	1
95	0	634	3	0	0.182493613978857	0.817506386021142	1	25	3	1	0
95	1	625	1	0	0.460009294440842	0.539990705559157	0	1	4	0	0
95	1	676	1	1	0.506956430123624	0.493043569876375	1	2	4	0	1
95	0	389	1	1	0.55511749994338	0.444882500056619	1	3	4	0	0
95	0	813	1	0	0.452676267597728	0.547323732402271	0	4	4	0	1
95	0	678	1	0	0.496860793479059	0.50313920652094	0	5	4	0	1
95	1	594	1	1	0.545101916455546	0.454898083544453	1	6	4	0	1
95	0	835	1	0	0.429577771091583	0.570422228908416	0	7	4	0	1
95	0	768	1	1	0.566518687323958	0.433481312676041	1	8	4	0	0
95	1	440	1	1	0.57422435502023	0.425775644979769	1	9	4	0	1
95	0	858	1	0	0.495413543822094	0.504586456177905	0	10	4	0	1
95	1	593	1	0	0.472822063296029	0.52717793670397	0	11	4	0	0
95	0	336	1	1	0.575013550066916	0.424986449933083	1	12	4	0	0
95	1	280	1	0	0.42011332293976	0.579886677060239	0	13	4	0	0
95	0	446	1	0	0.438908198016017	0.561091801983982	0	14	4	0	1
95	0	806	1	1	0.536417313998886	0.463582686001113	1	15	4	0	0
95	1	169	1	0	0.487951677756985	0.512048322243014	0	16	4	0	0
95	0	419	1	1	0.578846700462623	0.421153299537376	1	17	4	0	0
95	0	838	1	0	0.442921200506559	0.55707879949344	0	18	4	0	1
95	1	480	1	0	0.426412576368144	0.573587423631855	0	19	4	0	0
95	0	435	1	1	0.565499052558878	0.434500947441121	1	20	4	0	0
95	0	654	1	1	0.509126763463065	0.490873236536935	1	21	4	0	0
95	1	616	1	1	0.509854007808281	0.490145992191718	1	22	4	0	1
95	1	347	1	1	0.539661317204284	0.460338682795715	1	23	4	0	1
95	0	466	1	1	0.561311012047899	0.4386889879521	1	24	4	0	0
95	1	319	1	0	0.458800340827296	0.541199659172703	0	25	4	0	0
95	1	755	2	0	0.48614460474946	0.513855395250539	1	1	5	1	1
95	1	299	2	1	0.545925408393082	0.454074591606917	0	2	5	1	0
95	1	812	2	0	0.494657406670963	0.505342593329036	1	3	5	1	1
95	1	373	2	0	0.43729856747206	0.562701432527939	1	4	5	1	1
95	1	609	2	1	0.564651069195694	0.435348930804305	0	5	5	1	0
95	0	381	2	1	0.566697958285879	0.43330204171412	0	6	5	1	1
95	0	369	2	1	0.552924957908741	0.447075042091258	0	7	5	1	1
95	0	426	2	1	0.555033919803687	0.444966080196312	0	8	5	1	1
95	0	470	2	1	0.50799956396673	0.492000436033269	0	9	5	1	1
95	1	597	2	0	0.472641226768364	0.527358773231635	1	10	5	1	1
95	0	510	2	1	0.523042104409274	0.476957895590725	0	11	5	1	1
95	0	482	2	1	0.536782623321304	0.463217376678695	0	12	5	1	1
95	1	417	2	0	0.457389951676069	0.54261004832393	1	13	5	1	1
95	0	549	2	0	0.468280383563071	0.531719616436928	1	14	5	1	0
95	0	695	2	0	0.478496162345048	0.521503837654951	1	15	5	1	0
95	0	453	2	1	0.563897263315171	0.436102736684828	0	16	5	1	1
95	1	610	2	0	0.450404363080662	0.549595636919337	1	17	5	1	1
95	1	635	2	0	0.496401594535116	0.503598405464883	1	18	5	1	1
95	0	504	2	1	0.553343621693848	0.446656378306151	0	19	5	1	1
95	1	556	2	0	0.465713143223156	0.534286856776843	1	20	5	1	1
95	0	471	2	1	0.511924085930583	0.488075914069416	0	21	5	1	1
95	1	480	2	0	0.424832879188915	0.575167120811085	1	22	5	1	1
95	1	537	2	0	0.491138542032033	0.508861457967966	1	23	5	1	1
95	0	396	2	1	0.575812170364512	0.424187829635487	0	24	5	1	1
95	0	399	2	0	0.489608757726025	0.510391242273974	1	25	5	1	0
95	0	394	4	1	0.857864613026468	0.142135386973531	0	1	6	1	1
95	1	451	4	1	0.813374236559133	0.186625763440867	0	2	6	1	0
95	0	480	4	1	0.810656181693212	0.189343818306787	0	3	6	1	1
95	1	420	4	1	0.82497689734255	0.175023102657449	0	4	6	1	0
95	0	533	4	1	0.802150693061405	0.197849306938594	0	5	6	1	1
95	0	321	4	1	0.815584247396864	0.184415752603135	0	6	6	1	1
95	1	502	4	0	0.175194058196457	0.824805941803542	1	7	6	1	1
95	1	477	4	0	0.136913109305623	0.863086890694376	1	8	6	1	1
95	1	370	4	0	0.120713509058808	0.879286490941191	1	9	6	1	1
95	1	394	4	0	0.152696899765978	0.847303100234021	1	10	6	1	1
95	0	308	4	1	0.842787812265993	0.157212187734006	0	11	6	1	1
95	1	338	4	0	0.165474807436875	0.834525192563124	1	12	6	1	1
95	0	338	4	1	0.868191845065601	0.131808154934398	0	13	6	1	1
95	1	338	4	0	0.15473291555706	0.845267084442939	1	14	6	1	1
95	1	556	4	0	0.149444813140923	0.850555186859076	1	15	6	1	1
95	1	354	4	0	0.198950477430998	0.801049522569001	1	16	6	1	1
95	1	550	4	0	0.135110590290745	0.864889409709254	1	17	6	1	1
95	0	910	4	1	0.859839402199874	0.140160597800125	0	18	6	1	1
95	1	435	4	0	0.18596690112129	0.814033098878709	1	19	6	1	1
95	1	381	4	0	0.125097465474917	0.874902534525082	1	20	6	1	1
95	0	442	4	1	0.853537685734296	0.146462314265703	0	21	6	1	1
95	0	408	4	1	0.848876347797354	0.151123652202645	0	22	6	1	1
95	1	639	4	1	0.85383294402645	0.146167055973549	0	23	6	1	0
95	1	610	4	0	0.166905376935006	0.833094623064993	1	24	6	1	1
95	0	468	4	1	0.85951897752205	0.140481022477949	0	25	6	1	1
95	0	457	3	1	0.86688990177679	0.133110098223209	1	1	7	0	0
95	1	444	3	0	0.193489747310506	0.806510252689493	0	2	7	0	0
95	1	596	3	1	0.851248388526024	0.148751611473975	1	3	7	0	1
95	1	521	3	0	0.128946520588337	0.871053479411662	0	4	7	0	0
95	1	704	3	0	0.153658643292451	0.846341356707549	0	5	7	0	0
95	1	508	3	1	0.858277902895523	0.141722097104477	1	6	7	0	1
95	1	454	3	0	0.179133079907028	0.820866920092971	0	7	7	0	0
95	1	967	3	1	0.878424220656563	0.121575779343436	1	8	7	0	1
95	1	682	3	1	0.826353491589315	0.173646508410684	1	9	7	0	1
95	1	728	3	0	0.193438880878076	0.806561119121923	0	10	7	0	0
95	1	477	3	1	0.85848790043707	0.141512099562929	1	11	7	0	1
95	1	537	3	0	0.158612134703071	0.841387865296928	0	12	7	0	0
95	1	493	3	0	0.189171356875687	0.810828643124312	0	13	7	0	0
95	0	764	3	0	0.170994249865681	0.829005750134318	0	14	7	0	1
95	0	337	3	1	0.801130086564419	0.19886991343558	1	15	7	0	0
95	1	275	3	0	0.154856367350194	0.845143632649805	0	16	7	0	0
95	1	503	3	1	0.820695479713236	0.179304520286763	1	17	7	0	1
95	0	685	3	0	0.18316081099068	0.81683918900932	0	18	7	0	1
95	1	389	3	0	0.130919605024737	0.869080394975262	0	19	7	0	0
95	0	614	3	0	0.121527843238273	0.878472156761727	0	20	7	0	1
95	1	458	3	1	0.81905472576984	0.180945274230159	1	21	7	0	1
95	1	485	3	1	0.818860340035536	0.181139659964463	1	22	7	0	1
95	1	465	3	1	0.85474443348663	0.145255566513369	1	23	7	0	1
95	0	698	3	1	0.83425454695463	0.165745453045369	1	24	7	0	0
95	1	794	3	1	0.804804797046615	0.195195202953384	1	25	7	0	1
95	1	552	2	0	0.482414192550559	0.51758580744944	0	1	8	0	0
95	1	544	2	0	0.448466666361079	0.55153333363892	0	2	8	0	0
95	0	745	2	1	0.571040101290568	0.428959898709431	1	3	8	0	0
95	0	618	2	0	0.44716513465965	0.552834865340349	0	4	8	0	1
95	1	459	2	1	0.568782819031634	0.431217180968365	1	5	8	0	1
95	0	530	2	0	0.447298619266365	0.552701380733634	0	6	8	0	1
95	0	768	2	0	0.486832777060846	0.513167222939153	0	7	8	0	1
95	1	527	2	1	0.558220400121312	0.441779599878687	1	8	8	0	1
95	0	765	2	1	0.519689914612272	0.480310085387727	1	9	8	0	0
95	0	691	2	0	0.466185140991502	0.533814859008497	0	10	8	0	1
95	0	492	2	0	0.461251667728576	0.538748332271423	0	11	8	0	1
95	0	434	2	0	0.446447869439742	0.553552130560257	0	12	8	0	1
95	1	524	2	1	0.577836355043821	0.422163644956178	1	13	8	0	1
95	1	524	2	1	0.541195365050389	0.45880463494961	1	14	8	0	1
95	1	500	2	1	0.575760545148786	0.424239454851213	1	15	8	0	1
95	0	418	2	0	0.435081847374545	0.564918152625454	0	16	8	0	1
95	0	491	2	0	0.434860928508792	0.565139071491207	0	17	8	0	1
95	1	630	2	1	0.505392859235652	0.494607140764347	1	18	8	0	1
95	0	469	2	1	0.50594002839413	0.494059971605869	1	19	8	0	0
95	1	641	2	1	0.52283505304461	0.477164946955389	1	20	8	0	1
95	0	422	2	0	0.427262363140863	0.572737636859136	0	21	8	0	1
95	0	759	2	0	0.489808031585576	0.510191968414423	0	22	8	0	1
95	1	507	2	1	0.564052371936527	0.435947628063472	1	23	8	0	1
95	0	420	2	1	0.512425275154217	0.487574724845782	1	24	8	0	0
95	NaN	457	2	0	0.497244533093144	0.502755466906855	0	25	8	0	0
95	1	626	2	1	0.563832783371479	0.43616721662852	1	1	9	0	1
95	1	838	2	0	0.492002186750226	0.507997813249773	0	2	9	0	0
95	1	738	2	0	0.496290440669885	0.503709559330114	0	3	9	0	0
95	0	863	2	0	0.464101550919883	0.535898449080116	0	4	9	0	1
95	1	573	2	1	0.55397452487835	0.446025475121649	1	5	9	0	1
95	1	526	2	0	0.433911173213278	0.566088826786721	0	6	9	0	0
95	1	752	2	0	0.486429164723859	0.51357083527614	0	7	9	0	0
95	0	628	2	0	0.490722381309236	0.509277618690763	0	8	9	0	1
95	1	704	2	0	0.487311551616517	0.512688448383482	0	9	9	0	0
95	1	671	2	1	0.518401634222323	0.481598365777676	1	10	9	0	1
95	0	744	2	0	0.429450191783609	0.57054980821639	0	11	9	0	1
95	1	566	2	0	0.497755188559293	0.502244811440706	0	12	9	0	0
95	1	646	2	1	0.539744269442103	0.460255730557896	1	13	9	0	1
95	1	892	2	1	0.505655822088019	0.49434417791198	1	14	9	0	1
95	1	587	2	1	0.512653113962081	0.487346886037918	1	15	9	0	1
95	0	627	2	0	0.477610190320555	0.522389809679444	0	16	9	0	1
95	1	537	2	1	0.526786709390322	0.473213290609677	1	17	9	0	1
95	1	540	2	1	0.525348052073271	0.474651947926729	1	18	9	0	1
95	0	513	2	0	0.42348169766602	0.576518302333979	0	19	9	0	1
95	1	725	2	1	0.560268466467196	0.439731533532803	1	20	9	0	1
95	1	730	2	1	0.519308777547275	0.480691222452724	1	21	9	0	1
95	1	817	2	1	0.519120388397728	0.480879611602271	1	22	9	0	1
95	1	498	2	1	0.574799215560758	0.425200784439241	1	23	9	0	1
95	1	890	2	1	0.563993631883945	0.436006368116054	1	24	9	0	1
95	0	584	2	0	0.426121055384171	0.573878944615828	0	25	9	0	1
95	0	550	2	1	0.558507464720744	0.441492535279255	0	1	10	1	1
95	0	645	2	1	0.566470980793132	0.433529019206867	0	2	10	1	1
95	0	477	2	1	0.544408525698067	0.455591474301932	0	3	10	1	1
95	1	583	2	0	0.434167592083364	0.565832407916635	1	4	10	1	1
95	0	607	2	1	0.505014038524774	0.494985961475225	0	5	10	1	1
95	1	469	2	0	0.444909980062061	0.555090019937938	1	6	10	1	1
95	1	480	2	0	0.436586971023412	0.563413028976587	1	7	10	1	1
95	0	758	2	0	0.480754235843825	0.519245764156174	1	8	10	1	0
95	0	576	2	1	0.547269881672753	0.452730118327246	0	9	10	1	1
95	1	397	2	0	0.455740734595712	0.544259265404287	1	10	10	1	1
95	0	502	2	1	0.521178011819236	0.478821988180763	0	11	10	1	1
95	0	515	2	1	0.557400595747589	0.44259940425241	0	12	10	1	1
95	1	436	2	0	0.432769822865075	0.567230177134924	1	13	10	1	1
95	1	519	2	0	0.459213956053602	0.540786043946398	1	14	10	1	1
95	0	507	2	1	0.528648049128039	0.47135195087196	0	15	10	1	1
95	0	549	2	1	0.564671409847731	0.435328590152268	0	16	10	1	1
95	0	474	2	1	0.562344080911772	0.437655919088227	0	17	10	1	1
95	0	462	2	0	0.481132385436833	0.518867614563167	1	18	10	1	0
95	1	636	2	0	0.495515254567664	0.504484745432335	1	19	10	1	1
95	1	510	2	0	0.445930140541119	0.55406985945888	1	20	10	1	1
95	0	508	2	1	0.579601893047775	0.420398106952224	0	21	10	1	1
95	0	598	2	1	0.529486576696106	0.470513423303893	0	22	10	1	1
95	0	638	2	0	0.491756561285871	0.508243438714128	1	23	10	1	0
95	1	502	2	0	0.435698296816507	0.564301703183492	1	24	10	1	1
95	1	551	2	0	0.45922939117507	0.540770608824929	1	25	10	1	1
95	0	578	4	1	0.802237056885032	0.197762943114967	1	1	11	0	0
95	0	730	4	0	0.197956238512719	0.802043761487281	0	2	11	0	1
95	1	567	4	1	0.838856122634326	0.161143877365673	1	3	11	0	1
95	0	594	4	0	0.147859357737006	0.852140642262993	0	4	11	0	1
95	1	521	4	1	0.842473088675854	0.157526911324145	1	5	11	0	1
95	1	458	4	1	0.808865061070588	0.191134938929411	1	6	11	0	1
95	1	406	4	1	0.847809189193908	0.152190810806091	1	7	11	0	1
95	0	446	4	0	0.152907658746277	0.847092341253722	0	8	11	0	1
95	0	532	4	0	0.194437410748211	0.805562589251788	0	9	11	0	1
95	0	448	4	0	0.150193987857886	0.849806012142113	0	10	11	0	1
95	0	518	4	0	0.177105193362124	0.822894806637875	0	11	11	0	1
95	0	442	4	0	0.155331208887233	0.844668791112766	0	12	11	0	1
95	0	388	4	0	0.137338439916313	0.862661560083686	0	13	11	0	1
95	1	442	4	1	0.843472008045012	0.156527991954987	1	14	11	0	1
95	0	564	4	0	0.160036076670947	0.839963923329052	0	15	11	0	1
95	1	594	4	1	0.841682506251762	0.158317493748237	1	16	11	0	1
95	0	439	4	0	0.124688568026697	0.875311431973302	0	17	11	0	1
95	1	449	4	1	0.807034462251678	0.192965537748321	1	18	11	0	1
95	0	546	4	0	0.121366420314844	0.878633579685155	0	19	11	0	1
95	1	415	4	1	0.80174024257869	0.198259757421309	1	20	11	0	1
95	1	453	4	1	0.845319539824056	0.154680460175943	1	21	11	0	1
95	1	489	4	1	0.870541380271668	0.129458619728331	1	22	11	0	1
95	1	527	4	1	0.851078680942689	0.14892131905731	1	23	11	0	1
95	0	463	4	0	0.132637337756547	0.867362662243452	0	24	11	0	1
95	0	521	4	0	0.18544674473713	0.814553255262869	0	25	11	0	1
95	1	444	3	1	0.861039052536725	0.138960947463274	0	1	12	1	0
95	1	479	3	0	0.14259306708084	0.857406932919159	1	2	12	1	1
95	1	556	3	1	0.877763930014776	0.122236069985223	0	3	12	1	0
95	1	639	3	0	0.198057873156011	0.801942126843988	1	4	12	1	1
95	1	475	3	0	0.185556837097007	0.814443162902992	1	5	12	1	1
95	1	365	3	0	0.168518951552501	0.831481048447498	1	6	12	1	1
95	1	388	3	0	0.141012774774415	0.858987225225584	1	7	12	1	1
95	1	441	3	0	0.148107999460193	0.851892000539806	1	8	12	1	1
95	0	461	3	1	0.842368461004019	0.15763153899598	0	9	12	1	1
95	0	350	3	1	0.85360403075524	0.146395969244759	0	10	12	1	1
95	0	402	3	0	0.180629054343227	0.819370945656772	1	11	12	1	0
95	0	747	3	1	0.807381343838946	0.192618656161053	0	12	12	1	1
95	1	633	3	0	0.15601231756407	0.843987682435929	1	13	12	1	1
95	0	459	3	1	0.827869066837635	0.172130933162364	0	14	12	1	1
95	1	447	3	0	0.196958764362989	0.80304123563701	1	15	12	1	1
95	0	411	3	1	0.806151137971698	0.193848862028301	0	16	12	1	1
95	0	493	3	1	0.844881246703582	0.155118753296417	0	17	12	1	1
95	1	576	3	0	0.182879146047509	0.81712085395249	1	18	12	1	1
95	0	402	3	1	0.872784542086171	0.127215457913828	0	19	12	1	1
95	0	409	3	1	0.807494730055339	0.19250526994466	0	20	12	1	1
95	1	367	3	0	0.191527149179501	0.808472850820498	1	21	12	1	1
95	0	362	3	1	0.801616418770473	0.198383581229526	0	22	12	1	1
95	0	341	3	1	0.876503959565739	0.12349604043426	0	23	12	1	1
95	NaN	436	3	1	0.820206219387396	0.179793780612603	0	24	12	1	1
95	NaN	438	3	0	0.186899646092554	0.813100353907445	1	25	12	1	1
95	0	337	4	0	0.19252395096967	0.807476049030329	1	1	13	1	0
95	0	347	4	1	0.807229019414542	0.192770980585457	0	2	13	1	1
95	1	235	4	1	0.86575483009014	0.134245169909859	0	3	13	1	0
95	0	285	4	1	0.847605913109642	0.152394086890357	0	4	13	1	1
95	0	454	4	1	0.808719638388949	0.19128036161105	0	5	13	1	1
95	1	326	4	0	0.194245240012097	0.805754759987902	1	6	13	1	1
95	1	358	4	0	0.133077235540907	0.866922764459092	1	7	13	1	1
95	1	388	4	0	0.195279081685317	0.804720918314682	1	8	13	1	1
95	1	345	4	0	0.139815589362731	0.860184410637268	1	9	13	1	1
95	1	361	4	0	0.158225855114222	0.841774144885777	1	10	13	1	1
95	0	488	4	1	0.809288790038241	0.190711209961759	0	11	13	1	1
95	1	404	4	0	0.195880369257383	0.804119630742616	1	12	13	1	1
95	0	344	4	1	0.845688246889084	0.154311753110915	0	13	13	1	1
95	0	377	4	1	0.87698164978058	0.123018350219419	0	14	13	1	1
95	0	360	4	1	0.845728798942333	0.154271201057666	0	15	13	1	1
95	0	354	4	1	0.845044961103906	0.154955038896093	0	16	13	1	1
95	1	282	4	0	0.121178020984142	0.878821979015857	1	17	13	1	1
95	1	440	4	0	0.198543551774481	0.801456448225518	1	18	13	1	1
95	1	392	4	0	0.161079062417524	0.838920937582475	1	19	13	1	1
95	1	331	4	0	0.13719448238098	0.862805517619019	1	20	13	1	1
95	1	364	4	0	0.168292880136074	0.831707119863925	1	21	13	1	1
95	0	474	4	1	0.823846132509604	0.176153867490395	0	22	13	1	1
95	1	288	4	0	0.137362571053624	0.862637428946375	1	23	13	1	1
95	0	459	4	1	0.814716499972718	0.185283500027281	0	24	13	1	1
95	0	414	4	1	0.824264238806988	0.175735761193011	0	25	13	1	1
95	0	659	1	1	0.577002034946054	0.422997965053946	1	1	14	0	0
95	1	444	1	0	0.425950144986435	0.574049855013564	0	2	14	0	0
95	0	566	1	1	0.555283581792234	0.444716418207765	1	3	14	0	0
95	1	732	1	0	0.465376588927903	0.534623411072096	0	4	14	0	0
95	1	927	1	1	0.524597901576707	0.475402098423292	1	5	14	0	1
95	1	683	1	1	0.512011047037814	0.487988952962185	1	6	14	0	1
95	1	569	1	1	0.562477612595074	0.437522387404925	1	7	14	0	1
95	1	422	1	1	0.514774016253336	0.485225983746663	1	8	14	0	1
95	1	461	1	1	0.570874089944883	0.429125910055116	1	9	14	0	1
95	1	486	1	1	0.546796300733408	0.453203699266591	1	10	14	0	1
95	0	650	1	0	0.472127067106796	0.527872932893203	0	11	14	0	1
95	1	518	1	0	0.486034986960186	0.513965013039813	0	12	14	0	0
95	0	386	1	0	0.425740842119985	0.574259157880014	0	13	14	0	1
95	1	453	1	1	0.579089640607903	0.420910359392096	1	14	14	0	1
95	0	460	1	0	0.497726147090771	0.502273852909228	0	15	14	0	1
95	1	469	1	1	0.510954507579396	0.489045492420603	1	16	14	0	1
95	0	468	1	0	0.435958893148922	0.564041106851077	0	17	14	0	1
95	0	427	1	0	0.434800712545346	0.565199287454653	0	18	14	0	1
95	1	576	1	1	0.520690851940781	0.479309148059218	1	19	14	0	1
95	0	381	1	0	0.450403234022943	0.549596765977056	0	20	14	0	1
95	0	424	1	0	0.424341992471893	0.575658007528106	0	21	14	0	1
95	0	329	1	1	0.562113568810788	0.437886431189211	1	22	14	0	0
95	1	805	1	0	0.470217621863981	0.529782378136018	0	23	14	0	0
95	0	419	1	0	0.428480946885831	0.571519053114168	0	24	14	0	1
95	0	430	1	0	0.423933174349972	0.576066825650027	0	25	14	0	1
95	1	492	3	1	0.849261505719593	0.150738494280406	1	1	15	0	1
95	1	410	3	1	0.839858545862216	0.160141454137783	1	2	15	0	1
95	0	456	3	0	0.169688546267938	0.830311453732061	0	3	15	0	1
95	0	395	3	0	0.172998536491946	0.827001463508053	0	4	15	0	1
95	0	385	3	0	0.140178978657725	0.859821021342274	0	5	15	0	1
95	0	441	3	0	0.140028832129643	0.859971167870356	0	6	15	0	1
95	1	498	3	1	0.819356521324687	0.180643478675312	1	7	15	0	1
95	1	383	3	0	0.140740004128263	0.859259995871737	0	8	15	0	0
95	0	374	3	0	0.171366065709336	0.828633934290663	0	9	15	0	1
95	1	504	3	1	0.875568379146285	0.124431620853714	1	10	15	0	1
95	1	387	3	1	0.8745090416462	0.125490958353799	1	11	15	0	1
95	1	416	3	1	0.809059678471569	0.19094032152843	1	12	15	0	1
95	1	289	3	0	0.158541633346608	0.841458366653391	0	13	15	0	0
95	1	495	3	1	0.82298178981087	0.177018210189129	1	14	15	0	1
95	1	545	3	1	0.811595219902101	0.188404780097898	1	15	15	0	1
95	0	469	3	0	0.140790080083645	0.859209919916354	0	16	15	0	1
95	0	389	3	0	0.183226894160017	0.816773105839982	0	17	15	0	1
95	1	486	3	1	0.869422570569359	0.13057742943064	1	18	15	0	1
95	0	440	3	0	0.156255291450545	0.843744708549454	0	19	15	0	1
95	1	383	3	1	0.837905721196629	0.16209427880337	1	20	15	0	1
95	1	463	3	1	0.807201727276082	0.192798272723917	1	21	15	0	1
95	1	374	3	1	0.842517344922347	0.157482655077652	1	22	15	0	1
95	0	412	3	0	0.182023868542255	0.817976131457744	0	23	15	0	1
95	0	360	3	0	0.195702929332803	0.804297070667196	0	24	15	0	1
95	NaN	424	3	0	0.135414002157943	0.864585997842056	0	25	15	0	0
95	1	842	1	1	0.514295648800204	0.485704351199795	0	1	16	1	0
95	1	410	1	0	0.436537597176811	0.563462402823188	1	2	16	1	1
95	0	550	1	0	0.475366513730578	0.524633486269421	1	3	16	1	0
95	0	680	1	0	0.478819392689685	0.521180607310315	1	4	16	1	0
95	1	491	1	1	0.52351256976464	0.476487430235359	0	5	16	1	0
95	0	717	1	1	0.522752567594949	0.47724743240505	0	6	16	1	1
95	0	380	1	0	0.490738750297255	0.509261249702744	1	7	16	1	0
95	0	595	1	0	0.43707108406147	0.562928915938529	1	8	16	1	0
95	1	315	1	0	0.444926498225301	0.555073501774698	1	9	16	1	1
95	1	369	1	0	0.434946393501104	0.565053606498895	1	10	16	1	1
95	1	523	1	0	0.426956491699495	0.573043508300504	1	11	16	1	1
95	0	661	1	1	0.501492152472983	0.498507847527017	0	12	16	1	1
95	0	589	1	0	0.491113318417464	0.508886681582535	1	13	16	1	0
95	1	460	1	0	0.44684878831882	0.553151211681179	1	14	16	1	1
95	0	435	1	1	0.530361809352173	0.469638190647826	0	15	16	1	1
95	0	387	1	1	0.542530862285654	0.457469137714345	0	16	16	1	1
95	1	525	1	0	0.475466201325134	0.524533798674865	1	17	16	1	1
95	0	436	1	1	0.564398458079765	0.435601541920235	0	18	16	1	1
95	0	408	1	1	0.568158300809244	0.431841699190755	0	19	16	1	1
95	0	476	1	1	0.523418628496254	0.476581371503745	0	20	16	1	1
95	0	408	1	1	0.522955655770926	0.477044344229073	0	21	16	1	1
95	0	382	1	1	0.554161480584143	0.445838519415856	0	22	16	1	1
95	1	526	1	0	0.444014400157486	0.555985599842513	1	23	16	1	1
95	1	585	1	0	0.459540862162949	0.54045913783705	1	24	16	1	1
95	0	361	1	1	0.564553653274126	0.435446346725873	0	25	16	1	1
