ID	choice	rt	choice_cond	state	contrast_left	contrast_right	mu	correct	trials	blocks	contrast	congruence	con_diff_choice	ecoperf
145	0	[931.0999999998603]	3	1	0.940623347883029	0.05937665211697	22	1	1	1	1	0	0.881246695766059	1
145	1	[375.5999999998603]	3	0	0.073452891031609	0.926547108968391	62	0	2	1	1	0	0.853094217936782	1
145	0	[512.3999999999069]	3	1	0.920231061067569	0.0797689389324305	20	1	3	1	1	0	0.840462122135138	1
145	1	[637.2000000001863]	3	1	0.934086696455051	0.0659133035449489	11	0	4	1	1	0	0.868173392910102	0
145	1	[700.5999999998603]	3	0	0.115009638801924	0.884990361198075	4	1	5	1	1	0	0.769980722396151	1
145	1	[399.89999999990687]	3	0	0.108295260559657	0.891704739440342	21	0	6	1	1	0	0.783409478880685	1
145	1	[441]	3	0	0.0736613757796418	0.926338624220358	16	1	7	1	1	0	0.852677248440716	1
145	0	[711.0999999998603]	3	1	0.909934320335744	0.0900656796642555	8	1	8	1	1	0	0.819868640671488	1
145	0	[555.4000000001397]	3	1	0.902321864667064	0.0976781353329351	15	0	9	1	1	0	0.804643729334129	1
145	1	[549.9000000001397]	3	0	0.108311087351814	0.891688912648185	14	1	10	1	1	0	0.783377825296371	1
145	1	[803.5999999998603]	3	0	0.121707837924161	0.878292162075838	NaN	1	11	1	1	0	0.756584324151677	1
145	0	[643.9000000001397]	3	0	0.08712136331671	0.91287863668329	36	1	12	1	1	0	0.82575727336658	0
145	1	[524.9000000001397]	3	0	0.120706133431694	0.879293866568305	23	1	13	1	1	0	0.758587733136611	1
145	1	[658.0999999998603]	3	0	0.0536245571102348	0.946375442889765	24	0	14	1	1	0	0.89275088577953	1
145	0	[680.8999999999069]	3	1	0.904069414277213	0.0959305857227866	36	1	15	1	1	0	0.808138828554426	1
145	1	[516.3999999999069]	3	1	0.915939380782177	0.0840606192178226	43	1	16	1	1	0	0.831878761564354	0
145	0	[492.30000000004657]	3	1	0.925043927259729	0.0749560727402706	38	1	17	1	1	0	0.850087854519458	1
145	1	[463.10000000009313]	3	1	0.856164388688387	0.143835611311612	46	1	18	1	1	0	0.712328777376775	0
145	0	[655]	3	1	0.906945614428817	0.0930543855711829	44	1	19	1	1	0	0.813891228857634	1
145	0	[538]	3	0	0.0845445248500843	0.915455475149915	25	0	20	1	1	0	0.830910950299831	0
145	0	[759.5999999998603]	3	1	0.924882477061037	0.0751175229389622	25	1	21	1	1	0	0.849764954122075	1
145	0	[909.1999999999534]	3	1	0.925840486864628	0.0741595131353712	35	0	22	1	1	0	0.851680973729257	1
145	0	[447]	3	1	0.876516647824868	0.123483352175131	38	1	23	1	1	0	0.753033295649737	1
145	0	[618.5]	3	0	0.103325246957823	0.896674753042176	19	0	24	1	1	0	0.793349506084353	0
145	1	[745.4000000001397]	3	0	0.0647678297177044	0.935232170282295	29	0	25	1	1	0	0.870464340564591	1
145	1	[921.5]	3	0	0.0830887477805835	0.916911252219416	23	0	1	2	0	0	0.833822504438833	0
145	1	[442.0999999998603]	3	1	0.90515517648483	0.0948448235151691	13	1	2	2	0	0	0.810310352969661	1
145	0	[451]	3	0	0.13773111370691	0.862268886293089	8	1	3	2	0	0	0.724537772586179	1
145	1	[591]	3	1	0.905119834874934	0.094880165125066	24	0	4	2	0	0	0.810239669749868	1
145	0	[451.10000000009313]	3	0	0.141779226412559	0.85822077358744	17	1	5	2	0	0	0.716441547174881	1
145	1	[512.1999999999534]	3	1	0.879845168233508	0.120154831766492	12	1	6	2	0	0	0.759690336467016	1
145	0	[596.5]	3	0	0.0552080472826313	0.944791952717368	13	1	7	2	0	0	0.889583905434737	1
145	1	[440.80000000004657]	3	0	0.102241155717378	0.897758844282621	29	1	8	2	0	0	0.795517688565243	0
145	1	[838.5]	3	1	0.870129439019665	0.129870560980334	9	1	9	2	0	0	0.740258878039331	1
145	1	[577.3000000000466]	3	1	0.942422596862625	0.0575774031373744	10	1	10	2	0	0	0.884845193725251	1
145	0	[628.9000000001397]	3	0	0.117519837049569	0.88248016295043	10	1	11	2	0	0	0.764960325900861	1
145	1	[549.8000000000466]	3	0	0.0778322819161675	0.922167718083832	25	1	12	2	0	0	0.844335436167664	0
145	1	[537.3000000000466]	3	1	0.862544212281757	0.137455787718242	26	0	13	2	0	0	0.725088424563515	1
145	1	[683.5]	3	1	0.895351112786316	0.104648887213683	23	1	14	2	0	0	0.790702225572633	1
145	0	[689.9000000001397]	3	0	0.145827265145776	0.854172734854223	25	1	15	2	0	0	0.708345469708447	1
145	1	[665.6999999999534]	3	1	0.860466249078215	0.139533750921784	41	0	16	2	0	0	0.720932498156431	1
145	0	[472.5999999998603]	3	0	0.0950515104834156	0.904948489516584	40	0	17	2	0	0	0.809896979033168	1
145	0	[525.8000000000466]	3	1	0.927145846787906	0.0728541532120932	28	0	18	2	0	0	0.854291693575813	0
145	0	[569.6000000000931]	3	1	0.930615514157908	0.0693844858420918	31	0	19	2	0	0	0.861231028315816	0
145	0	[850.3999999999069]	3	0	0.0785611064179935	0.921438893582006	17	1	20	2	0	0	0.842877787164013	1
145	1	[477.80000000004657]	3	1	0.856729943597596	0.143270056402403	15	1	21	2	0	0	0.713459887195193	1
145	1	[450.69999999995343]	3	1	0.928762573819901	0.0712374261800984	13	1	22	2	0	0	0.857525147639803	1
145	1	[688.1000000000931]	3	0	0.115875642758226	0.884124357241773	6	0	23	2	0	0	0.768248714483547	0
145	0	[449]	3	0	0.105456899711429	0.89454310028857	8	0	24	2	0	0	0.789086200577141	1
145	1	[380.0999999998603]	3	1	0.883421318045646	0.116578681954353	39	0	25	2	0	0	0.766842636091293	1
145	0	[582.1999999999534]	2	0	0.464040848510026	0.535959151489973	22	0	1	3	1	0	0.0719183029799469	0
145	0	[958]	2	1	0.517690962921335	0.482309037078664	9	1	2	3	1	0	0.035381925842671	1
145	1	[680.1000000000931]	2	0	0.453827417243915	0.546172582756084	21	1	3	3	1	0	0.092345165512169	1
145	0	[572.5]	2	1	0.502920575626183	0.497079424373816	10	1	4	3	1	0	0.00584115125236695	1
145	0	[819.5]	2	1	0.505727857357096	0.494272142642903	13	1	5	3	1	0	0.011455714714193	1
145	1	[611.8000000000466]	2	0	0.451662392056229	0.54833760794377	5	1	6	3	1	0	0.096675215887541	1
145	1	[609.1000000000931]	2	0	0.475117698807639	0.52488230119236	4	1	7	3	1	0	0.049764602384721	1
145	1	[786.3999999999069]	2	0	0.456047210631264	0.543952789368735	4	1	8	3	1	0	0.087905578737471	1
145	1	[895.3000000000466]	2	1	0.512339214264781	0.487660785735218	1	0	9	3	1	0	0.024678428529563	0
145	0	[429.19999999995343]	2	1	0.595989077041775	0.404010922958224	1	1	10	3	1	0	0.191978154083551	1
145	0	[547.8999999999069]	2	1	0.590177369721476	0.409822630278524	2	1	11	3	1	0	0.180354739442952	1
145	1	[761.6999999999534]	2	0	0.484037456114858	0.515962543885141	2	1	12	3	1	0	0.031925087770283	1
145	0	[437.70000000018626]	2	1	0.582779215372712	0.417220784627287	1	1	13	3	1	0	0.165558430745425	1
145	1	[403.30000000004657]	2	0	0.433126059920615	0.566873940079384	1	1	14	3	1	0	0.133747880158769	1
145	0	[737.5999999998603]	2	1	0.536949573163354	0.463050426836645	4	1	15	3	1	0	0.073899146326709	1
145	1	[448.79999999981374]	2	0	0.45362139358757	0.546378606412429	0	1	16	3	1	0	0.092757212824859	1
145	1	[552.3000000000466]	2	0	0.450671307295406	0.549328692704593	0	1	17	3	1	0	0.0986573854091869	1
145	1	[694.1999999999534]	2	0	0.486001251119046	0.513998748880953	1	1	18	3	1	0	0.027997497761907	1
145	1	[769]	2	1	0.569802390746129	0.43019760925387	0	0	19	3	1	0	0.139604781492259	0
145	0	[859.1000000000931]	2	1	0.515938523706649	0.48406147629335	0	1	20	3	1	0	0.0318770474132991	1
145	1	[478.5]	2	0	0.417590912778704	0.582409087221295	0	1	21	3	1	0	0.164818174442591	1
145	1	[565.6999999999534]	2	0	0.468249948857796	0.531750051142203	0	1	22	3	1	0	0.063500102284407	1
145	0	[571.3000000000466]	2	1	0.570691325650463	0.429308674349537	0	1	23	3	1	0	0.141382651300926	1
145	1	[844.1999999999534]	2	1	0.503638688711913	0.496361311288086	0	0	24	3	1	0	0.00727737742382695	0
145	0	[906.5]	2	1	0.515877755502478	0.484122244497521	0	0	25	3	1	0	0.031755511004957	1
145	1	[812.3000000000466]	3	0	0.12281693640549	0.877183063594509	22	0	1	4	1	1	0.754366127189019	1
145	0	[454.9000000001397]	3	0	0.0863646975216702	0.913635302478329	48	0	2	4	1	1	0.827270604956659	0
145	1	[583.6999999999534]	3	1	0.90663471778442	0.0933652822155791	61	0	3	4	1	1	0.813269435568841	0
145	0	[632.4000000001397]	3	1	0.919136506183529	0.0808634938164707	72	1	4	4	1	1	0.838273012367058	1
145	1	[414.4000000001397]	3	0	0.086679154536876	0.913320845463123	62	0	5	4	1	1	0.826641690926247	1
145	0	[468.19999999995343]	3	1	0.880851327801331	0.119148672198668	75	1	6	4	1	1	0.761702655602663	1
145	0	[391.19999999995343]	3	1	0.936760001642046	0.0632399983579531	55	0	7	4	1	1	0.873520003284093	1
145	0	[579.1999999999534]	3	1	0.894484745012684	0.105515254987315	74	1	8	4	1	1	0.788969490025369	1
145	1	[479.79999999981374]	3	0	0.119027496842141	0.880972503157858	76	1	9	4	1	1	0.761945006315717	1
145	1	[624.5999999998603]	3	0	0.0861644414219333	0.913835558578066	67	1	10	4	1	1	0.827671117156133	1
145	0	[457.80000000004657]	3	1	0.919522633805674	0.0804773661943254	63	0	11	4	1	1	0.839045267611349	1
145	1	[335.80000000004657]	3	0	0.0552403196701315	0.944759680329868	47	0	12	4	1	1	0.889519360659736	1
145	0	[585.3999999999069]	3	0	0.0871347890935625	0.912865210906437	58	0	13	4	1	1	0.825730421812874	0
145	0	[665.1000000000931]	3	1	0.924729441721213	0.0752705582787861	57	1	14	4	1	1	0.849458883442427	1
145	1	[821.5]	3	0	0.127570964712242	0.872429035287757	47	0	15	4	1	1	0.744858070575515	1
145	0	[657.4000000003725]	3	1	0.890609826062511	0.109390173937488	43	0	16	4	1	1	0.781219652125023	1
145	1	[370.8000000002794]	3	1	0.9065935396363	0.0934064603636992	56	0	17	4	1	1	0.813187079272601	0
145	1	[542.6000000000931]	3	0	0.121105471303053	0.878894528696947	67	1	18	4	1	1	0.757789057393894	1
145	1	[425.5]	3	0	0.0531462572012002	0.946853742798799	69	1	19	4	1	1	0.893707485597599	1
145	0	[517.1000000000931]	3	1	0.937774066567638	0.0622259334323619	75	1	20	4	1	1	0.875548133135276	1
145	0	[541]	3	1	0.932127955300057	0.0678720446999428	62	0	21	4	1	1	0.864255910600114	1
145	0	[523.5]	3	0	0.0947315365104538	0.905268463489546	76	0	22	4	1	1	0.810536926979092	0
145	1	[491.39999999990687]	3	0	0.12810549025003	0.871894509749969	75	1	23	4	1	1	0.743789019499939	1
145	0	[535.2000000001863]	3	1	0.937752700492031	0.0622472995079686	84	0	24	4	1	1	0.875505400984062	1
145	1	[414]	3	0	0.13351501322329	0.866484986776709	86	0	25	4	1	1	0.732969973553419	1
145	1	[687.7000000001863]	1	1	0.58008453137775	0.419915468622249	62	0	1	5	0	0	0.160169062755501	1
145	1	[571.7000000001863]	1	0	0.474534919916369	0.52546508008363	45	0	2	5	0	0	0.050930160167261	0
145	0	[515.3000000002794]	1	1	0.554214274557832	0.445785725442167	38	0	3	5	0	0	0.108428549115665	0
145	1	[537.1000000000931]	1	1	0.553441998212892	0.446558001787107	54	0	4	5	0	0	0.106883996425785	1
145	0	[585.1999999997206]	1	0	0.436196236251262	0.563803763748737	46	1	5	5	0	0	0.127607527497475	1
145	0	[519]	1	0	0.465976244048298	0.534023755951701	36	1	6	5	0	0	0.068047511903403	1
145	1	[464.40000000037253]	1	1	0.591176272796032	0.408823727203967	32	1	7	5	0	0	0.182352545592065	1
145	1	[460]	1	1	0.574621355465298	0.425378644534702	17	1	8	5	0	0	0.149242710930596	1
145	1	[444.6999999997206]	1	1	0.552536235007687	0.447463764992312	11	1	9	5	0	0	0.105072470015375	1
145	0	[462.6999999997206]	1	0	0.433805911985639	0.56619408801436	25	0	10	5	0	0	0.132388176028721	1
145	1	[495.5]	1	0	0.436694473634509	0.563305526365491	14	0	11	5	0	0	0.126611052730982	0
145	1	[460.20000000018626]	1	1	0.564072390621984	0.435927609378015	26	0	12	5	0	0	0.128144781243969	1
145	0	[521.3999999999069]	1	0	0.427255686940107	0.572744313059892	45	0	13	5	0	0	0.145488626119785	1
145	1	[382.70000000018626]	1	0	0.454414015009483	0.545585984990516	39	0	14	5	0	0	0.0911719699810331	0
145	1	[534.6000000000931]	1	1	0.529462617910478	0.470537382089522	37	1	15	5	0	0	0.058925235820956	1
145	0	[594]	1	0	0.473853951561766	0.526146048438233	41	0	16	5	0	0	0.052292096876467	1
145	1	[428.10000000009313]	1	0	0.41552362226676	0.584476377733239	25	0	17	5	0	0	0.168952755466479	0
145	1	[451.60000000009313]	1	1	0.550802696898449	0.44919730310155	45	0	18	5	0	0	0.101605393796899	1
145	1	[521.5]	1	1	0.523740286820563	0.476259713179436	46	1	19	5	0	0	0.047480573641127	1
145	1	[444.5]	1	0	0.43695367427168	0.563046325728319	35	0	20	5	0	0	0.126092651456639	0
145	0	[482.60000000009313]	1	0	0.439289570171146	0.560710429828853	32	0	21	5	0	0	0.121420859657707	1
145	0	[416]	1	0	0.413180629122034	0.586819370877965	27	1	22	5	0	0	0.173638741755931	1
145	1	[519]	1	1	0.553404722813601	0.446595277186398	20	1	23	5	0	0	0.106809445627203	1
145	1	[504.3000000002794]	1	1	0.552703752363394	0.447296247636605	15	1	24	5	0	0	0.105407504726789	1
145	0	[658.5999999996275]	1	0	0.419742536775663	0.580257463224336	14	0	25	5	0	0	0.160514926448673	1
145	0	[873]	1	0	0.43847991772678	0.561520082273219	59	1	1	6	1	0	0.123040164546439	0
145	1	[459.10000000009313]	1	1	0.559847810822168	0.440152189177831	45	0	2	6	1	0	0.119695621644337	0
145	1	[740.2999999998137]	1	0	0.475797548598573	0.524202451401426	39	1	3	6	1	0	0.048404902802853	1
145	1	[453.20000000018626]	1	0	0.467628955380871	0.532371044619128	54	0	4	6	1	0	0.064742089238257	1
145	0	[568.2000000001863]	1	0	0.408595436493269	0.59140456350673	44	0	5	6	1	0	0.182809127013461	0
145	0	[594.2000000001863]	1	1	0.538572059274631	0.461427940725368	58	1	6	6	1	0	0.077144118549263	1
145	1	[453.89999999990687]	1	1	0.560354947216821	0.439645052783178	47	0	7	6	1	0	0.120709894433643	0
145	0	[494]	1	1	0.568102375716862	0.431897624283137	58	1	8	6	1	0	0.136204751433725	1
145	1	[372.5]	1	1	0.566619582398277	0.433380417601722	58	1	9	6	1	0	0.133239164796555	0
145	0	[460.09999999962747]	1	1	0.574500374066772	0.425499625933227	59	1	10	6	1	0	0.149000748133545	1
145	1	[368.5]	1	1	0.580556365491225	0.419443634508774	42	1	11	6	1	0	0.161112730982451	0
145	1	[641]	1	0	0.497320217342715	0.502679782657284	62	1	12	6	1	0	0.00535956531456899	1
145	0	[417.60000000009313]	1	0	0.41840990894628	0.581590091053719	42	0	13	6	1	0	0.163180182107439	0
145	1	[496.70000000018626]	1	0	0.473181860770777	0.526818139229222	56	0	14	6	1	0	0.053636278458445	1
145	0	[872.2999999998137]	1	1	0.511286920710311	0.488713079289688	45	1	15	6	1	0	0.022573841420623	1
145	0	[490.39999999990687]	1	1	0.553842308298546	0.446157691701453	59	0	16	6	1	0	0.107684616597093	1
145	1	[535.3999999999069]	1	1	0.588247376161485	0.411752623838514	47	0	17	6	1	0	0.176494752322971	0
145	0	[649.6000000000931]	1	1	0.510262482728738	0.489737517271261	45	1	18	6	1	0	0.020524965457477	1
145	1	[541.3000000002794]	1	0	0.496540761577645	0.503459238422354	42	1	19	6	1	0	0.00691847684470898	1
145	1	[499.3000000002794]	1	0	0.434980365118399	0.5650196348816	55	0	20	6	1	0	0.130039269763201	1
145	0	[584.2999999998137]	1	0	0.423060221487076	0.576939778512923	40	0	21	6	1	0	0.153879557025847	0
145	1	[531.8999999999069]	1	0	0.487125596290312	0.512874403709687	57	1	22	6	1	0	0.025748807419375	1
145	1	[444]	1	1	0.563924900053779	0.43607509994622	46	1	23	6	1	0	0.127849800107559	0
145	1	[570.2000000001863]	1	0	0.473519894508844	0.526480105491155	46	1	24	6	1	0	0.052960210982311	1
145	1	[665.3000000002794]	1	0	0.480501816492603	0.519498183507396	46	1	25	6	1	0	0.038996367014793	1
145	1	[534.5]	3	1	0.878264048948184	0.121735951051815	44	0	1	7	0	1	0.756528097896369	1
145	0	[449]	3	1	0.879459954079528	0.120540045920471	55	0	2	7	0	1	0.758919908159057	0
145	1	[449.89999999990687]	3	1	0.920721718214541	0.0792782817854584	57	0	3	7	0	1	0.841443436429083	1
145	0	[494.79999999981374]	3	0	0.129671468845445	0.870328531154554	45	1	4	7	0	1	0.740657062309109	1
145	0	[592.5]	3	1	0.914417956493274	0.0855820435067258	59	0	5	7	0	1	0.828835912986548	0
145	0	[542.8999999999069]	3	0	0.108965170100932	0.891034829899067	62	1	6	7	0	1	0.782069659798135	1
145	1	[476.89999999990687]	3	1	0.931879018411513	0.0681209815884865	68	1	7	7	0	1	0.863758036823026	1
145	0	[634.5]	3	0	0.081592084074374	0.918407915925626	71	1	8	7	0	1	0.836815831851252	1
145	0	[416.10000000009313]	3	0	0.148168784109964	0.851831215890036	57	0	9	7	0	1	0.703662431780072	1
145	0	[399.10000000009313]	3	0	0.065514177647286	0.934485822352713	72	1	10	7	0	1	0.868971644705427	1
145	1	[494.59999999962747]	3	1	0.858478030995499	0.1415219690045	74	1	11	7	0	1	0.716956061990999	1
145	1	[521.1000000000931]	3	1	0.919841259754369	0.0801587402456302	65	0	12	7	0	1	0.839682519508739	1
145	0	[608.7999999998137]	3	0	0.134127121425056	0.865872878574943	59	0	13	7	0	1	0.731745757149887	1
145	1	[526.8999999999069]	3	1	0.898033489258102	0.101966510741897	65	1	14	7	0	1	0.796066978516205	1
145	0	[558.1000000000931]	3	0	0.130239777302461	0.869760222697538	65	1	15	7	0	1	0.739520445395077	1
145	0	[433]	3	0	0.116598607500874	0.883401392499126	64	0	16	7	0	1	0.766802784998252	1
145	0	[829.8999999999069]	3	0	0.0848630338048715	0.915136966195128	74	1	17	7	0	1	0.830273932390256	1
145	0	[410.40000000037253]	3	0	0.0765128933182058	0.923487106681794	74	1	18	7	0	1	0.846974213363588	1
145	0	[516.1000000000931]	3	0	0.106477076302047	0.893522923697952	68	0	19	7	0	1	0.787045847395905	1
145	1	[439.79999999981374]	3	1	0.877670426183217	0.122329573816782	57	0	20	7	0	1	0.755340852366435	1
145	1	[418]	3	0	0.0618717763643676	0.938128223635632	61	0	21	7	0	1	0.876256447271264	0
145	1	[394.39999999990687]	3	1	0.866294031637521	0.133705968362478	64	1	22	7	0	1	0.732588063275043	1
145	1	[562]	3	1	0.8852980545516	0.114701945448399	64	1	23	7	0	1	0.770596109103201	1
145	1	[451.60000000009313]	3	1	0.856115382737588	0.143884617262411	67	1	24	7	0	1	0.712230765475177	1
145	0	[643.7999999998137]	3	0	0.0576677086982302	0.942332291301769	83	0	25	7	0	1	0.884664582603539	1
145	0	[984]	1	1	0.570076102234868	0.429923897765131	63	1	1	8	1	1	0.140152204469737	1
145	0	[680.6000000000931]	1	1	0.501505125058997	0.498494874941002	69	1	2	8	1	1	0.00301025011799505	1
145	0	[503.1999999997206]	1	1	0.523141259491051	0.476858740508948	75	1	3	8	1	1	0.0462825189821029	1
145	0	[506.60000000009313]	1	1	0.588195155240864	0.411804844759135	78	1	4	8	1	1	0.176390310481729	1
145	1	[485.79999999981374]	1	0	0.435021084703713	0.564978915296286	70	0	5	8	1	1	0.129957830592573	1
145	1	[498.5]	1	0	0.404937466455787	0.595062533544212	75	1	6	8	1	1	0.190125067088425	1
145	0	[595.1000000000931]	1	1	0.544436516089895	0.455563483910104	63	0	7	8	1	1	0.088873032179791	1
145	1	[535.5]	1	0	0.412050371045791	0.587949628954208	58	0	8	8	1	1	0.175899257908417	1
145	1	[701.5]	1	1	0.596422631750283	0.403577368249716	69	0	9	8	1	1	0.192845263500567	0
145	0	[601.8999999999069]	1	1	0.588786662149791	0.411213337850208	58	0	10	8	1	1	0.177573324299583	1
145	1	[455.40000000037253]	1	0	0.484888801574561	0.515111198425438	61	1	11	8	1	1	0.030222396850877	1
145	1	[603.3000000002794]	1	1	0.563105340096656	0.436894659903343	65	0	12	8	1	1	0.126210680193313	0
145	0	[448]	1	1	0.551018094750001	0.448981905249998	56	0	13	8	1	1	0.102036189500003	1
145	1	[458.40000000037253]	1	0	0.474240501089991	0.525759498910008	68	1	14	8	1	1	0.051518997820017	1
145	0	[417.3000000002794]	1	1	0.567531389764229	0.43246861023577	67	1	15	8	1	1	0.135062779528459	1
145	1	[456.6999999997206]	1	0	0.438325565352373	0.561674434647627	69	1	16	8	1	1	0.123348869295254	1
145	1	[859.8000000002794]	1	0	0.484016133561251	0.515983866438748	53	0	17	8	1	1	0.031967732877497	1
145	0	[454.39999999990687]	1	1	0.547003922488873	0.452996077511126	75	1	18	8	1	1	0.0940078449777469	1
145	1	[726.1000000000931]	1	1	0.51710729024118	0.482892709758819	45	1	19	8	1	1	0.034214580482361	0
145	1	[458]	1	0	0.463996385796702	0.536003614203297	70	1	20	8	1	1	0.072007228406595	1
145	0	[532.2999999998137]	1	0	0.432721541629123	0.567278458370876	45	1	21	8	1	1	0.134556916741753	0
145	1	[440.79999999981374]	1	0	0.446971685075537	0.553028314924462	66	1	22	8	1	1	0.106056629848925	1
145	1	[550.3999999999069]	1	1	0.578077124623033	0.421922875376966	61	0	23	8	1	1	0.156154249246067	0
145	1	[520.2000000001863]	1	0	0.488076130982892	0.511923869017107	68	1	24	8	1	1	0.023847738034215	1
145	0	[511.5]	1	0	0.466967887334076	0.533032112665923	63	0	25	8	1	1	0.066064225331847	0
145	1	[723.1000000000931]	1	0	0.440537876890399	0.5594621231096	53	0	1	9	0	1	0.118924246219201	0
145	1	[507.09999999962747]	1	1	0.580964191221505	0.419035808778494	47	0	2	9	0	1	0.161928382443011	1
145	0	[665.7999999998137]	1	1	0.512039705659905	0.487960294340094	56	0	3	9	0	1	0.024079411319811	0
145	0	[430.89999999990687]	1	1	0.560377637065465	0.439622362934534	57	1	4	9	0	1	0.120755274130931	0
145	1	[564.2000000001863]	1	1	0.513969536474917	0.486030463525082	54	1	5	9	0	1	0.0279390729498351	1
145	0	[693.4000000003725]	1	0	0.446475873126511	0.553524126873488	60	1	6	9	0	1	0.107048253746977	1
145	1	[383.09999999962747]	1	1	0.565023671989318	0.434976328010681	60	1	7	9	0	1	0.130047343978637	1
145	0	[450.60000000009313]	1	0	0.40989435659061	0.590105643409389	65	1	8	9	0	1	0.180211286818779	1
145	1	[439.10000000009313]	1	0	0.499960830844019	0.50003916915598	54	0	9	9	0	1	7.83383119610237e-05	0
145	0	[455]	1	0	0.446986217749253	0.553013782250746	53	0	10	9	0	1	0.106027564501493	1
145	0	[436.59999999962747]	1	0	0.422346994215995	0.577653005784004	59	1	11	9	0	1	0.155306011568009	1
145	0	[483.39999999990687]	1	0	0.415211825424313	0.584788174575686	53	0	12	9	0	1	0.169576349151373	1
145	1	[435.29999999981374]	1	1	0.506384051571466	0.493615948428533	62	1	13	9	0	1	0.012768103142933	1
145	1	[422.79999999981374]	1	1	0.551148542218707	0.448851457781292	54	0	14	9	0	1	0.102297084437415	1
145	1	[428.10000000009313]	1	0	0.40247880914242	0.597521190857579	57	0	15	9	0	1	0.195042381715159	0
145	0	[489]	1	0	0.476134160454828	0.523865839545171	58	0	16	9	0	1	0.047731679090343	1
145	1	[814.8000000002794]	1	1	0.519698977042982	0.480301022957017	64	1	17	9	0	1	0.039397954085965	1
145	1	[421.3000000002794]	1	1	0.561060064139481	0.438939935860518	58	0	18	9	0	1	0.122120128278963	1
145	0	[662.3999999999069]	1	0	0.481408196610984	0.518591803389015	61	1	19	9	0	1	0.037183606778031	1
145	0	[743.4000000003725]	1	1	0.534408784850163	0.465591215149836	75	0	20	9	0	1	0.068817569700327	0
145	1	[443.89999999990687]	1	1	0.561166811962815	0.438833188037184	75	1	21	9	0	1	0.122333623925631	1
145	1	[388.79999999981374]	1	1	0.584460295583977	0.415539704416022	83	1	22	9	0	1	0.168920591167955	1
145	0	[466.60000000009313]	1	0	0.45914994272408	0.540850057275919	87	1	23	9	0	1	0.081700114551839	1
145	0	[578.4000000003725]	1	0	0.428372097386943	0.571627902613056	72	0	24	9	0	1	0.143255805226113	1
145	1	[355.1999999997206]	1	0	0.454721132845421	0.545278867154578	72	0	25	9	0	1	0.090557734309157	0
145	0	[814.1000000000931]	2	0	0.448053137228284	0.551946862771715	58	0	1	10	1	1	0.103893725543431	0
145	0	[462.90000000037253]	2	1	0.545564808088555	0.454435191911444	64	1	2	10	1	1	0.091129616177111	1
145	1	[393.8000000002794]	2	0	0.427756944703206	0.572243055296793	67	1	3	10	1	1	0.144486110593587	1
145	0	[573.3000000002794]	2	1	0.577939080641532	0.422060919358467	80	1	4	10	1	1	0.155878161283065	1
145	1	[540.8999999999069]	2	0	0.430668315945221	0.569331684054779	81	1	5	10	1	1	0.138663368109558	1
145	1	[839.2000000001863]	2	0	0.488063817120048	0.511936182879951	84	1	6	10	1	1	0.023872365759903	1
145	0	[770.8999999999069]	2	1	0.507482549400604	0.492517450599395	87	1	7	10	1	1	0.014965098801209	1
145	0	[497.39999999990687]	2	1	0.570517853219767	0.429482146780232	86	1	8	10	1	1	0.141035706439535	1
145	1	[461.5]	2	0	0.412938541487962	0.587061458512037	89	1	9	10	1	1	0.174122917024075	1
145	0	[627.3999999999069]	2	1	0.528225384552286	0.471774615447713	89	1	10	10	1	1	0.056450769104573	1
145	0	[429.59999999962747]	2	1	0.547106850975507	0.452893149024492	93	1	11	10	1	1	0.094213701951015	1
145	1	[378.8000000002794]	2	0	0.417715062087448	0.582284937912551	96	1	12	10	1	1	0.164569875825103	1
145	0	[454.59999999962747]	2	1	0.567995226190986	0.432004773809013	98	1	13	10	1	1	0.135990452381973	1
145	0	[476.60000000009313]	2	1	0.522610470403987	0.477389529596012	96	1	14	10	1	1	0.045220940807975	1
145	0	[577.3000000002794]	2	1	0.536006030992579	0.46399396900742	98	1	15	10	1	1	0.072012061985159	1
145	1	[432.5]	2	0	0.444435311297277	0.555564688702722	100	1	16	10	1	1	0.111129377405445	1
145	1	[411.10000000009313]	2	0	0.430504124051902	0.569495875948097	100	1	17	10	1	1	0.138991751896195	1
145	0	[587.3000000002794]	2	1	0.537836484566393	0.462163515433606	100	1	18	10	1	1	0.075672969132787	1
145	0	[501.3000000002794]	2	1	0.548383764414658	0.451616235585341	100	1	19	10	1	1	0.096767528829317	1
145	1	[850.6000000000931]	2	1	0.504289782884572	0.495710217115427	100	0	20	10	1	1	0.00857956576914504	0
145	0	[417.20000000018626]	2	1	0.579198321495053	0.420801678504947	99	1	21	10	1	1	0.158396642990106	1
145	1	[436.5]	2	0	0.443380496043849	0.556619503956151	100	1	22	10	1	1	0.113239007912302	1
145	1	[478.1999999997206]	2	0	0.457980074855129	0.54201992514487	100	1	23	10	1	1	0.084039850289741	1
145	1	[618.5]	2	0	0.472598913438938	0.527401086561061	100	1	24	10	1	1	0.054802173122123	1
145	1	[389]	2	0	0.404240443158173	0.595759556841826	100	1	25	10	1	1	0.191519113683653	1
145	0	[669]	2	0	0.49108916945464	0.508910830545359	45	1	1	11	0	1	0.017821661090719	1
145	0	[631.2999999998137]	2	1	0.519002045009891	0.480997954990108	53	0	2	11	0	1	0.038004090019783	0
145	0	[532.8999999999069]	2	1	0.571290319370315	0.428709680629684	60	0	3	11	0	1	0.142580638740631	0
145	1	[466.39999999990687]	2	1	0.536050472894514	0.463949527105485	62	1	4	11	0	1	0.072100945789029	1
145	1	[629.6999999997206]	2	1	0.508716952642512	0.491283047357487	64	1	5	11	0	1	0.017433905285025	1
145	0	[584.7000000001863]	2	0	0.435428918183631	0.564571081816368	70	1	6	11	0	1	0.129142163632737	1
145	0	[507.79999999981374]	2	0	0.403287318559939	0.59671268144006	74	1	7	11	0	1	0.193425362880121	1
145	1	[436.79999999981374]	2	1	0.533194613742415	0.466805386257584	81	1	8	11	0	1	0.0663892274848309	1
145	0	[601.5]	2	0	0.486635461667581	0.513364538332418	83	1	9	11	0	1	0.026729076664837	1
145	1	[494.89999999990687]	2	1	0.518489851499468	0.481510148500531	87	1	10	11	0	1	0.036979702998937	1
145	0	[459.79999999981374]	2	0	0.410479627936635	0.589520372063364	89	1	11	11	0	1	0.179040744126729	1
145	1	[442.09999999962747]	2	1	0.552279206380585	0.447720793619414	91	1	12	11	0	1	0.104558412761171	1
145	1	[469.60000000009313]	2	1	0.536047515426986	0.463952484573013	96	1	13	11	0	1	0.072095030853973	1
145	1	[478.60000000009313]	2	1	0.599431635769407	0.400568364230592	98	1	14	11	0	1	0.198863271538815	1
145	0	[494.70000000018626]	2	0	0.400493736728162	0.599506263271837	100	1	15	11	0	1	0.199012526543675	1
145	1	[483.8000000002794]	2	1	0.576563241881391	0.423436758118608	100	1	16	11	0	1	0.153126483762783	1
145	1	[579.1000000000931]	2	1	0.548945054042119	0.45105494595788	100	1	17	11	0	1	0.097890108084239	1
145	0	[484.1999999997206]	2	0	0.453117385446878	0.546882614553121	100	1	18	11	0	1	0.093765229106243	1
145	1	[453.10000000009313]	2	1	0.551209336225169	0.44879066377483	100	1	19	11	0	1	0.102418672450339	1
145	0	[715.5]	2	0	0.488118337349208	0.511881662650791	100	1	20	11	0	1	0.023763325301583	1
145	0	[433.10000000009313]	2	0	0.484344610077382	0.515655389922617	100	1	21	11	0	1	0.0313107798452349	1
145	0	[443.39999999990687]	2	0	0.450593527778582	0.549406472221417	100	1	22	11	0	1	0.098812944442835	1
145	1	[509.29999999981374]	2	1	0.560537741173678	0.439462258826321	100	1	23	11	0	1	0.121075482347357	1
145	0	[405.29999999981374]	2	0	0.431762913343632	0.568237086656367	100	1	24	11	0	1	0.136474173312735	1
145	0	[485.89999999990687]	2	0	0.486300099980122	0.513699900019877	100	1	25	11	0	1	0.027399800039755	1
145	1	[511.70000000018626]	2	0	0.466031659428985	0.533968340571014	46	0	1	12	0	0	0.0679366811420291	0
145	1	[538.2000000001863]	2	1	0.582480760914117	0.417519239085882	38	1	2	12	0	0	0.164961521828235	1
145	1	[588.8000000002794]	2	1	0.535953702319004	0.464046297680995	22	1	3	12	0	0	0.071907404638009	1
145	0	[766.7999999998137]	2	0	0.482920734370895	0.517079265629104	12	1	4	12	0	0	0.034158531258209	1
145	0	[531.3000000002794]	2	0	0.424901994688105	0.575098005311894	8	1	5	12	0	0	0.150196010623789	1
145	0	[483.3000000002794]	2	0	0.417948136015027	0.582051863984972	6	1	6	12	0	0	0.164103727969945	1
145	1	[603.0999999996275]	2	0	0.496517370890101	0.503482629109898	20	0	7	12	0	0	0.00696525821979704	0
145	1	[582.4000000003725]	2	1	0.540529176460174	0.459470823539825	8	1	8	12	0	0	0.081058352920349	1
145	0	[432.60000000009313]	2	0	0.457093238969586	0.542906761030413	4	1	9	12	0	0	0.085813522060827	1
145	1	[455]	2	1	0.550398534020637	0.449601465979362	4	1	10	12	0	0	0.100797068041275	1
145	1	[444.39999999990687]	2	1	0.576891277357015	0.423108722642984	2	1	11	12	0	0	0.153782554714031	1
145	0	[654.8999999999069]	2	0	0.492606766929519	0.50739323307048	4	1	12	12	0	0	0.014786466140961	1
145	0	[430.29999999981374]	2	0	0.455545767022681	0.544454232977318	3	1	13	12	0	0	0.088908465954637	1
145	1	[514.8999999999069]	2	1	0.527455951525375	0.472544048474624	1	1	14	12	0	0	0.0549119030507511	1
145	0	[515.3999999999069]	2	0	0.470094996459898	0.529905003540101	4	1	15	12	0	0	0.059810007080203	1
145	0	[422.6999999997206]	2	0	0.416950701100775	0.583049298899225	1	1	16	12	0	0	0.16609859779845	1
145	0	[416.70000000018626]	2	0	0.462757995386507	0.537242004613492	1	1	17	12	0	0	0.074484009226985	1
145	1	[409.6999999997206]	2	1	0.592286818080999	0.407713181919	0	1	18	12	0	0	0.184573636161999	1
145	1	[558.8999999999069]	2	1	0.555883893555475	0.444116106444524	0	1	19	12	0	0	0.111767787110951	1
145	1	[451]	2	1	0.569288978827546	0.430711021172453	0	1	20	12	0	0	0.138577957655093	1
145	1	[425.89999999990687]	2	1	0.586438988299335	0.413561011700664	0	1	21	12	0	0	0.172877976598671	1
145	1	[528]	2	1	0.578652496889136	0.421347503110863	0	1	22	12	0	0	0.157304993778273	1
145	1	[541.7999999998137]	2	1	0.531232921588127	0.468767078411872	0	1	23	12	0	0	0.062465843176255	1
145	0	[539.6000000000931]	2	0	0.474096694361148	0.525903305638851	0	1	24	12	0	0	0.051806611277703	1
145	1	[532.3999999999069]	2	1	0.579825463803513	0.420174536196487	0	1	25	12	0	0	0.159650927607026	1
