ID	choice	rt	choice_cond	state	contrast_left	contrast_right	mu	correct	trials	blocks	contrast	congruence	con_diff_choice	ecoperf
376	1	[591.9000000022352]	2	0	0.498470242791731	0.501529757208268	46	0	1	1	0	0	0.00305951441653696	0
376	1	[816.5]	2	0	0.439663691917536	0.560336308082463	36	0	2	1	0	0	0.120672616164927	0
376	0	[461.1000000014901]	2	0	0.437628006646836	0.562371993353163	37	1	3	1	0	0	0.124743986706327	1
376	1	[676.1999999992549]	2	1	0.516384985118939	0.48361501488106	36	1	4	1	0	0	0.032769970237879	1
376	0	[551.4000000022352]	2	0	0.428359043655056	0.571640956344943	23	1	5	1	0	0	0.143281912689887	1
376	1	[525.8999999985099]	2	1	0.524885432369711	0.475114567630288	23	1	6	1	0	0	0.049770864739423	1
376	1	[584.6000000014901]	2	1	0.503616303132055	0.496383696867944	14	1	7	1	0	0	0.00723260626411099	1
376	1	[888.3999999985099]	2	0	0.49949967601807	0.500500323981929	16	0	8	1	0	0	0.00100064796385901	0
376	0	[609.8000000007451]	2	0	0.42689463734281	0.573105362657189	13	1	9	1	0	0	0.146210725314379	1
376	0	[725.8000000007451]	2	0	0.470684886657887	0.529315113342112	14	1	10	1	0	0	0.058630226684225	1
376	0	[465.5]	2	0	0.418303890761451	0.581696109238548	12	1	11	1	0	0	0.163392218477097	1
376	1	[446.5999999977648]	2	1	0.543379805852582	0.456620194147417	14	1	12	1	0	0	0.0867596117051651	1
376	1	[550.6999999992549]	2	1	0.544018747722794	0.455981252277206	12	1	13	1	0	0	0.088037495445588	1
376	1	[511.19999999925494]	2	1	0.54336038160798	0.456639618392019	12	1	14	1	0	0	0.0867207632159609	1
376	1	[684.8000000007451]	2	1	0.548303453814993	0.451696546185006	12	1	15	1	0	0	0.096606907629987	1
376	0	[581.1000000014901]	2	0	0.454747183274521	0.545252816725478	14	1	16	1	0	0	0.090505633450957	1
376	0	[588.6999999992549]	2	0	0.496812224404422	0.503187775595577	13	1	17	1	0	0	0.00637555119115502	1
376	1	[801.3000000007451]	2	1	0.594808000757737	0.405191999242262	13	1	18	1	0	0	0.189616001515475	1
376	1	[593.1000000014901]	2	1	0.517409052417988	0.482590947582011	12	1	19	1	0	0	0.034818104835977	1
376	1	[610.1999999992549]	2	1	0.579432500409325	0.420567499590674	13	1	20	1	0	0	0.158865000818651	1
376	1	[492.6000000014901]	2	1	0.58616669444839	0.413833305551609	13	1	21	1	0	0	0.172333388896781	1
376	1	[719.2000000029802]	2	1	0.591674019057739	0.40832598094226	13	1	22	1	0	0	0.183348038115479	1
376	0	[666.0999999977648]	2	0	0.41025991646941	0.589740083530589	12	1	23	1	0	0	0.179480167061179	1
376	0	[680.8000000007451]	2	0	0.423578414911876	0.576421585088123	14	1	24	1	0	0	0.152843170176247	1
376	1	[739.4000000022352]	2	1	0.518169448212236	0.481830551787763	13	0	25	1	0	0	0.036338896424473	1
376	1	[457.0999999977648]	1	0	0.412393098330876	0.587606901669123	64	1	1	2	1	1	0.175213803338247	1
376	1	[408.6000000014901]	1	0	0.412021613427622	0.587978386572377	50	0	2	2	1	1	0.175956773144755	1
376	1	[430.8999999985099]	1	0	0.410250760394135	0.589749239605865	67	1	3	2	1	1	0.17949847921173	1
376	0	[563.8999999985099]	1	1	0.560716457645444	0.439283542354555	74	1	4	2	1	1	0.121432915290889	1
376	1	[447.19999999925494]	1	0	0.42202648786803	0.577973512131969	69	0	5	2	1	1	0.155947024263939	1
376	0	[480]	1	1	0.535302483724786	0.464697516275214	68	0	6	2	1	1	0.070604967449572	1
376	1	[554.6000000014901]	1	0	0.459578418486112	0.540421581513888	76	1	7	2	1	1	0.080843163027776	1
376	0	[503.5]	1	1	0.518596350273894	0.481403649726105	77	1	8	2	1	1	0.0371927005477889	1
376	1	[568.5]	1	0	0.467871476470845	0.532128523529154	74	1	9	2	1	1	0.064257047058309	1
376	1	[455.4000000022352]	1	0	0.429916105363848	0.570083894636151	77	1	10	2	1	1	0.140167789272303	1
376	0	[572.8000000007451]	1	1	0.523269055540091	0.476730944459908	79	1	11	2	1	1	0.046538111080183	1
376	1	[522.3000000007451]	1	0	0.443388439346652	0.556611560653347	83	1	12	2	1	1	0.113223121306695	1
376	1	[450.80000000074506]	1	0	0.403063849514968	0.596936150485031	80	1	13	2	1	1	0.193872300970063	1
376	1	[996.2000000029802]	1	1	0.505420260370905	0.494579739629094	82	1	14	2	1	1	0.010840520741811	0
376	1	[478.8999999985099]	1	0	0.406911028713312	0.593088971286687	81	0	15	2	1	1	0.186177942573375	1
376	0	[485.3999999985099]	1	1	0.561287838253447	0.438712161746552	88	1	16	2	1	1	0.122575676506895	1
376	0	[460.5]	1	1	0.592238681086271	0.407761318913728	88	1	17	2	1	1	0.184477362172543	1
376	1	[489.80000000074506]	1	0	0.408959238518523	0.591040761481476	87	1	18	2	1	1	0.182081522962953	1
376	0	[435]	1	1	0.568860367430561	0.431139632569438	89	1	19	2	1	1	0.137720734861123	1
376	0	[594.9000000022352]	1	1	0.5978462858524	0.402153714147599	85	0	20	2	1	1	0.195692571704801	1
376	0	[477.5999999977648]	1	1	0.5365631472172	0.463436852782799	88	1	21	2	1	1	0.073126294434401	1
376	1	[435.5]	1	0	0.448495040636665	0.551504959363334	91	0	22	2	1	1	0.103009918726669	1
376	1	[935.8000000007451]	1	1	0.515446973136016	0.484553026863983	83	0	23	2	1	1	0.030893946272033	0
376	0	[495.69999999925494]	1	1	0.5297380577569	0.470261942243099	80	0	24	2	1	1	0.059476115513801	1
376	1	[529.6999999992549]	1	0	0.462125062412818	0.537874937587182	89	1	25	2	1	1	0.075749875174364	1
376	0	[504]	3	1	0.852593263551821	0.147406736448178	40	0	1	3	0	0	0.705186527103643	0
376	1	[439]	3	0	0.11570376027254	0.884296239727459	38	0	2	3	0	0	0.768592479454919	0
376	1	[396.1000000014901]	3	1	0.948508540668764	0.0514914593312358	42	0	3	3	0	0	0.897017081337528	1
376	1	[393.19999999925494]	3	1	0.889550294779945	0.110449705220054	24	1	4	3	0	0	0.779100589559891	1
376	1	[400.3999999985099]	3	1	0.913374486340846	0.0866255136591532	34	0	5	3	0	0	0.826748972681693	1
376	0	[471.6000000014901]	3	0	0.103642240833173	0.896357759166826	39	0	6	3	0	0	0.792715518333653	1
376	0	[378.5999999977648]	3	1	0.884070104190297	0.115929895809702	31	0	7	3	0	0	0.768140208380595	0
376	0	[409.3999999985099]	3	0	0.0826032227422518	0.917396777257748	23	1	8	3	0	0	0.834793554515496	1
376	0	[420.80000000074506]	3	0	0.121823331134662	0.878176668865337	23	1	9	3	0	0	0.756353337730675	1
376	0	[471.19999999925494]	3	0	0.0693500141208813	0.930649985879118	29	0	10	3	0	0	0.861299971758237	1
376	1	[382.30000000074506]	3	1	0.868884107004983	0.131115892995016	23	1	11	3	0	0	0.737768214009967	1
376	0	[482.69999999925494]	3	0	0.058981920365612	0.941018079634388	23	1	12	3	0	0	0.882036159268776	1
376	1	[361.5]	3	1	0.880296473724329	0.11970352627567	22	1	13	3	0	0	0.760592947448659	1
376	0	[363.69999999925494]	3	0	0.0875348357206385	0.912465164279361	16	1	14	3	0	0	0.824930328558723	1
376	0	[314.3999999985099]	3	0	0.0678399324508621	0.932160067549137	18	1	15	3	0	0	0.864320135098275	1
376	0	[435.1000000014901]	3	0	0.110457561512897	0.889542438487102	23	0	16	3	0	0	0.779084876974205	1
376	1	[400.9000000022352]	3	1	0.900690879983175	0.0993091200168249	15	1	17	3	0	0	0.80138175996635	1
376	1	[654.0999999977648]	3	1	0.901167793291994	0.0988322067080053	17	1	18	3	0	0	0.802335586583989	1
376	0	[528.1000000014901]	3	0	0.11055502408358	0.889444975916419	12	1	19	3	0	0	0.778889951832839	1
376	0	[362.30000000074506]	3	0	0.093690448539735	0.906309551460264	12	1	20	3	0	0	0.812619102920529	1
376	1	[579.1999999992549]	3	1	0.897571677578758	0.102428322421242	17	0	21	3	0	0	0.795143355157516	1
376	0	[464.5]	3	0	0.0568423989964436	0.943157601003556	23	0	22	3	0	0	0.886315202007112	1
376	0	[596.4000000022352]	3	0	0.147257299009299	0.8527427009907	16	1	23	3	0	0	0.705485401981401	1
376	1	[577.3000000007451]	3	1	0.857510316105474	0.142489683894525	15	1	24	3	0	0	0.715020632210949	1
376	1	[402.30000000074506]	3	1	0.862111854029823	0.137888145970176	20	0	25	3	0	0	0.724223708059647	1
376	0	[567.6999999992549]	2	0	0.450360151229034	0.549639848770965	62	1	1	4	0	1	0.0992796975419309	1
376	1	[414.8999999985099]	2	1	0.526743361927613	0.473256638072386	74	1	2	4	0	1	0.053486723855227	1
376	1	[630.1999999992549]	2	0	0.489132835003871	0.510867164996128	76	0	3	4	0	1	0.0217343299922571	0
376	1	[663.5999999977648]	2	1	0.54841222594107	0.45158777405893	88	1	4	4	0	1	0.09682445188214	1
376	0	[495]	2	0	0.424752123682393	0.575247876317606	90	1	5	4	0	1	0.150495752635213	1
376	0	[469.8999999985099]	2	0	0.427236247111304	0.572763752888695	89	1	6	4	0	1	0.145527505777391	1
376	1	[778.5]	2	1	0.533126046422922	0.466873953577077	89	1	7	4	0	1	0.066252092845845	1
376	1	[418.19999999925494]	2	1	0.588352822668479	0.41164717733152	90	1	8	4	0	1	0.176705645336959	1
376	1	[515.3000000007451]	2	1	0.545790097297003	0.454209902702996	91	1	9	4	0	1	0.091580194594007	1
376	1	[481.6000000014901]	2	1	0.528780089259636	0.471219910740363	94	1	10	4	0	1	0.057560178519273	1
376	1	[515.6999999992549]	2	1	0.577754211220837	0.422245788779162	92	1	11	4	0	1	0.155508422441675	1
376	1	[557.9000000022352]	2	1	0.539704047656704	0.460295952343295	94	1	12	4	0	1	0.079408095313409	1
376	1	[965.2000000029802]	2	1	0.522722799727354	0.477277200272645	93	1	13	4	0	1	0.0454455994547091	1
376	0	[531]	2	0	0.452863512600631	0.547136487399368	93	1	14	4	0	1	0.094272974798737	1
376	0	[459.69999999925494]	2	0	0.407406719752443	0.592593280247556	94	1	15	4	0	1	0.185186560495113	1
376	1	[533.8000000007451]	2	1	0.511910480813706	0.488089519186293	98	1	16	4	0	1	0.023820961627413	1
376	0	[418.69999999925494]	2	0	0.407589198644217	0.592410801355782	97	1	17	4	0	1	0.184821602711565	1
376	1	[666.3999999985099]	2	1	0.527298835336587	0.472701164663413	98	1	18	4	0	1	0.0545976706731739	1
376	1	[703.6000000014901]	2	1	0.522170632253742	0.477829367746257	98	1	19	4	0	1	0.044341264507485	1
376	0	[496]	2	0	0.466018150194343	0.533981849805656	96	1	20	4	0	1	0.067963699611313	1
376	0	[477.19999999925494]	2	0	0.480243019604723	0.519756980395276	97	1	21	4	0	1	0.039513960790553	1
376	0	[468.30000000074506]	2	0	0.429493644085131	0.570506355914868	99	1	22	4	0	1	0.141012711829737	1
376	0	[442.8999999985099]	2	0	0.438429509315311	0.561570490684688	98	1	23	4	0	1	0.123140981369377	1
376	0	[500.30000000074506]	2	0	0.436605148964058	0.563394851035942	98	1	24	4	0	1	0.126789702071884	1
376	1	[557.1999999992549]	2	1	0.588261745784175	0.411738254215824	99	1	25	4	0	1	0.176523491568351	1
376	1	[558.4000000022352]	1	0	0.480179533972031	0.519820466027968	38	0	1	5	0	0	0.0396409320559371	0
376	1	[433.8999999985099]	1	1	0.567343365604297	0.432656634395702	37	1	2	5	0	0	0.134686731208595	1
376	1	[435.69999999925494]	1	1	0.575112767584056	0.424887232415943	36	0	3	5	0	0	0.150225535168113	1
376	1	[565.6000000014901]	1	1	0.501251357007255	0.498748642992744	23	1	4	5	0	0	0.00250271401451096	1
376	0	[378.3999999985099]	1	0	0.461263353394476	0.538736646605524	29	0	5	5	0	0	0.077473293211048	1
376	0	[424.4000000022352]	1	0	0.432729038625614	0.567270961374385	16	1	6	5	0	0	0.134541922748771	1
376	0	[448.30000000074506]	1	0	0.464251070255559	0.53574892974444	17	1	7	5	0	0	0.071497859488881	1
376	1	[452.19999999925494]	1	1	0.569622400660795	0.430377599339205	14	1	8	5	0	0	0.13924480132159	1
376	0	[491.5]	1	0	0.474441416972295	0.525558583027704	23	0	9	5	0	0	0.0511171660554089	1
376	0	[419.8999999985099]	1	0	0.409555543440368	0.590444456559631	16	1	10	5	0	0	0.180888913119263	1
376	1	[400.3999999985099]	1	1	0.596959964875761	0.403040035124238	15	1	11	5	0	0	0.193919929751523	1
376	0	[435.19999999925494]	1	0	0.453316288079952	0.546683711920047	14	1	12	5	0	0	0.0933674238400951	1
376	1	[608.9000000022352]	1	1	0.566029606445934	0.433970393554065	15	1	13	5	0	0	0.132059212891869	1
376	1	[557.3999999985099]	1	1	0.582627581942263	0.417372418057736	15	1	14	5	0	0	0.165255163884527	1
376	0	[789]	1	0	0.448667919919689	0.55133208008031	16	1	15	5	0	0	0.102664160160621	1
376	1	[429.5]	1	1	0.590951291088331	0.409048708911668	16	1	16	5	0	0	0.181902582176663	1
376	1	[738.5]	1	1	0.526678607615492	0.473321392384507	16	0	17	5	0	0	0.053357215230985	1
376	1	[443.5999999977648]	1	1	0.57604568517797	0.423954314822029	15	1	18	5	0	0	0.152091370355941	1
376	0	[620.3000000007451]	1	0	0.457834125446825	0.542165874553174	15	0	19	5	0	0	0.084331749106349	1
376	1	[709.3000000007451]	1	1	0.517017382253068	0.482982617746931	16	0	20	5	0	0	0.034034764506137	1
376	0	[507.0999999977648]	1	0	0.493354956125389	0.50664504387461	16	1	21	5	0	0	0.013290087749221	1
376	1	[678.8000000007451]	1	1	0.526545833171178	0.473454166828821	15	1	22	5	0	0	0.053091666342357	1
376	0	[913.4000000022352]	1	0	0.480859849654275	0.519140150345724	14	1	23	5	0	0	0.0382803006914491	1
376	0	[551]	1	0	0.433603940669075	0.566396059330924	15	0	24	5	0	0	0.132792118661849	1
376	0	[452.80000000074506]	1	1	0.50614852666639	0.493851473333609	15	0	25	5	0	0	0.012297053332781	0
376	0	[590.4000000022352]	2	1	0.515959333475003	0.484040666524996	37	1	1	6	1	0	0.031918666950007	1
376	1	[457.5999999977648]	2	0	0.465204323310956	0.534795676689043	30	1	2	6	1	0	0.069591353378087	1
376	1	[464.0999999977648]	2	0	0.405405420245629	0.59459457975437	22	1	3	6	1	0	0.189189159508741	1
376	1	[410.9000000022352]	2	0	0.410192712451227	0.589807287548772	18	1	4	6	1	0	0.179614575097545	1
376	0	[424.19999999925494]	2	1	0.594216357494622	0.405783642505377	17	1	5	6	1	0	0.188432714989245	1
376	0	[423.29999999701977]	2	1	0.564232949134297	0.435767050865702	17	1	6	6	1	0	0.128465898268595	1
376	1	[711.2000000029802]	2	0	0.469050656520123	0.530949343479876	18	1	7	6	1	0	0.061898686959753	1
376	0	[401.0999999977648]	2	1	0.527964297832677	0.472035702167322	17	1	8	6	1	0	0.055928595665355	1
376	1	[358.5999999977648]	2	0	0.408346675432005	0.591653324567995	17	1	9	6	1	0	0.18330664913599	1
376	1	[389.1000000014901]	2	0	0.453413102582442	0.546586897417557	9	1	10	6	1	0	0.093173794835115	1
376	1	[446]	2	0	0.486940630152315	0.513059369847684	9	1	11	6	1	0	0.026118739695369	1
376	0	[594.5999999977648]	2	1	0.571799622563972	0.428200377436027	10	1	12	6	1	0	0.143599245127945	1
376	0	[549.8999999985099]	2	0	0.49945902338999	0.500540976610009	11	0	13	6	1	0	0.00108195322001897	0
376	1	[417.19999999925494]	2	0	0.479365712520455	0.520634287479544	14	1	14	6	1	0	0.041268574959089	1
376	0	[548.0999999977648]	2	1	0.56090931512262	0.439090684877379	8	1	15	6	1	0	0.121818630245241	1
376	1	[580.6000000014901]	2	0	0.452775035419125	0.547224964580874	12	1	16	6	1	0	0.094449929161749	1
376	1	[558.5]	2	0	0.418537058844844	0.581462941155156	10	1	17	6	1	0	0.162925882310312	1
376	1	[444.30000000074506]	2	0	0.430572091330619	0.569427908669381	12	1	18	6	1	0	0.138855817338762	1
376	0	[465]	2	1	0.544254494481239	0.455745505518761	12	1	19	6	1	0	0.088508988962478	1
376	1	[526.5]	2	0	0.408123292576539	0.59187670742346	10	1	20	6	1	0	0.183753414846921	1
376	1	[731.1000000014901]	2	1	0.507772582322089	0.49222741767791	9	0	21	6	1	0	0.015545164644179	0
376	0	[459.9000000022352]	2	1	0.582173214361582	0.417826785638417	8	1	22	6	1	0	0.164346428723165	1
376	0	[423.5]	2	1	0.52448071237069	0.475519287629309	7	1	23	6	1	0	0.048961424741381	1
376	0	[409.6000000014901]	2	1	0.528963943143592	0.471036056856407	9	1	24	6	1	0	0.057927886287185	1
376	0	[427.3999999985099]	2	1	0.566148517925705	0.433851482074294	7	1	25	6	1	0	0.132297035851411	1
376	0	[464]	3	1	0.903000682362892	0.096999317637107	37	0	1	7	0	1	0.806001364725785	0
376	0	[415.19999999925494]	3	0	0.0864494555276956	0.913550544472304	65	1	2	7	0	1	0.827101088944608	1
376	0	[380.19999999925494]	3	0	0.0786103436664201	0.921389656333579	60	0	3	7	0	1	0.842779312667159	1
376	0	[374.30000000074506]	3	0	0.109906572717186	0.890093427282813	78	1	4	7	0	1	0.780186854565627	1
376	1	[396.1000000014901]	3	1	0.868782590351383	0.131217409648616	66	0	5	7	0	1	0.737565180702767	1
376	0	[404.8999999985099]	3	0	0.0878454063864508	0.912154593613549	75	1	6	7	0	1	0.824309187227098	1
376	1	[467.5999999977648]	3	1	0.908845302757246	0.0911546972427532	83	1	7	7	0	1	0.817690605514493	1
376	1	[327.69999999925494]	3	1	0.928188469933119	0.0718115300668803	76	0	8	7	0	1	0.856376939866239	1
376	0	[371.8999999985099]	3	0	0.0934183978322401	0.90658160216776	70	0	9	7	0	1	0.81316320433552	1
376	1	[458.9000000022352]	3	0	0.0748820733624275	0.925117926637572	69	0	10	7	0	1	0.850235853275145	0
376	1	[391.6000000014901]	3	1	0.89761191799603	0.102388082003969	76	1	11	7	0	1	0.795223835992061	1
376	1	[385.69999999925494]	3	1	0.853895548715191	0.146104451284808	77	1	12	7	0	1	0.707791097430383	1
376	0	[394.30000000074506]	3	0	0.076713182985434	0.923286817014566	82	1	13	7	0	1	0.846573634029132	1
376	1	[391.3999999985099]	3	1	0.85945189398053	0.140548106019469	82	1	14	7	0	1	0.718903787961061	1
376	1	[451.29999999701977]	3	1	0.928285152661646	0.0717148473383533	84	1	15	7	0	1	0.856570305323293	1
376	0	[402.9000000022352]	3	0	0.090085228847733	0.909914771152266	84	1	16	7	0	1	0.819829542304533	1
376	0	[406.29999999701977]	3	0	0.0829649326662596	0.91703506733374	82	0	17	7	0	1	0.83407013466748	1
376	1	[442.5]	3	1	0.941148398614812	0.058851601385187	85	1	18	7	0	1	0.882296797229625	1
376	1	[418]	3	1	0.944812539943973	0.0551874600560264	75	0	19	7	0	1	0.889625079887947	1
376	0	[424.69999999925494]	3	0	0.108665437146861	0.891334562853138	76	1	20	7	0	1	0.782669125706277	1
376	0	[411.80000000074506]	3	0	0.116373786958166	0.883626213041833	79	1	21	7	0	1	0.767252426083667	1
376	1	[389.9000000022352]	3	1	0.938735757625091	0.0612642423749086	81	1	22	7	0	1	0.877471515250182	1
376	0	[352.80000000074506]	3	0	0.0646050266748358	0.935394973325164	75	0	23	7	0	1	0.870789946650328	1
376	0	[397.5]	3	0	0.137216354582811	0.862783645417188	76	1	24	7	0	1	0.725567290834377	1
376	1	[412.80000000074506]	3	1	0.873453137566652	0.126546862433347	75	0	25	7	0	1	0.746906275133305	1
376	0	[523.4000000022352]	3	1	0.909108314907941	0.0908916850920583	38	1	1	8	1	0	0.818216629815883	1
376	0	[320.30000000074506]	3	1	0.885916807406397	0.114083192593602	42	0	2	8	1	0	0.771833614812795	1
376	1	[364.19999999925494]	3	0	0.119457155346094	0.880542844653905	30	1	3	8	1	0	0.761085689307811	1
376	0	[361.19999999925494]	3	1	0.858475494364218	0.141524505635781	24	1	4	8	1	0	0.716950988728437	1
376	0	[349.20000000298023]	3	1	0.907818653456585	0.0921813465434145	18	1	5	8	1	0	0.81563730691317	1
376	1	[358.8999999985099]	3	0	0.0564711638331162	0.943528836166883	27	0	6	8	1	0	0.887057672333767	1
376	1	[377.0999999977648]	3	0	0.0525977433751549	0.947402256624845	23	1	7	8	1	0	0.89480451324969	1
376	0	[575.5]	3	1	0.889596217284868	0.110403782715131	28	0	8	8	1	0	0.779192434569737	1
376	1	[535.7999999970198]	3	0	0.0638461858284689	0.936153814171531	31	0	9	8	1	0	0.872307628343062	1
376	0	[311.9000000022352]	3	1	0.900947520335318	0.0990524796646817	24	1	10	8	1	0	0.801895040670636	1
376	0	[413]	3	1	0.947430781668418	0.0525692183315817	20	1	11	8	1	0	0.894861563336836	1
376	1	[380.8999999985099]	3	0	0.12819572329439	0.871804276705609	23	1	12	8	1	0	0.743608553411219	1
376	1	[375.1000000014901]	3	0	0.130898952407655	0.869101047592344	23	1	13	8	1	0	0.738202095184689	1
376	0	[468.5999999977648]	3	1	0.907725102684534	0.0922748973154653	19	1	14	8	1	0	0.815450205369069	1
376	1	[582.1000000014901]	3	0	0.0575223363758922	0.942477663624107	17	1	15	8	1	0	0.884955327248215	1
376	1	[571.2000000029802]	3	0	0.0686417303626773	0.931358269637322	18	1	16	8	1	0	0.862716539274645	1
376	1	[376.19999999925494]	3	0	0.136244617411562	0.863755382588437	17	1	17	8	1	0	0.727510765176875	1
376	0	[359.0999999977648]	3	1	0.892813833007368	0.107186166992631	24	0	18	8	1	0	0.785627666014737	1
376	1	[357.1000000014901]	3	0	0.126753907891921	0.873246092108078	30	0	19	8	1	0	0.746492184216157	1
376	0	[548.8999999985099]	3	1	0.930512886121086	0.069487113878914	20	1	20	8	1	0	0.861025772242172	1
376	0	[318.1000000014901]	3	1	0.87110963149097	0.128890368509029	18	1	21	8	1	0	0.742219262981941	1
376	1	[376.6000000014901]	3	0	0.0870122510398928	0.912987748960107	17	1	22	8	1	0	0.825975497920214	1
376	0	[543.6000000014901]	3	1	0.946808333653878	0.0531916663461213	24	0	23	8	1	0	0.893616667307757	1
376	0	[491.0999999977648]	3	1	0.894778929451072	0.105221070548927	18	1	24	8	1	0	0.789557858902145	1
376	1	[404.69999999925494]	3	0	0.133891324126551	0.866108675873448	18	0	25	8	1	0	0.732217351746897	1
376	0	[543.5]	1	1	0.577682597067395	0.422317402932604	36	1	1	9	1	0	0.155365194134791	1
376	1	[556.3000000007451]	1	1	0.518521487068775	0.481478512931225	37	1	2	9	1	0	0.03704297413755	0
376	0	[463.30000000074506]	1	1	0.574239329608306	0.425760670391693	36	1	3	9	1	0	0.148478659216613	1
376	1	[382.4000000022352]	1	0	0.446258817941114	0.553741182058885	35	1	4	9	1	0	0.107482364117771	1
376	1	[464.80000000074506]	1	0	0.444790097828188	0.555209902171811	29	0	5	9	1	0	0.110419804343623	1
376	1	[512.3000000007451]	1	0	0.498590826645152	0.501409173354847	23	1	6	9	1	0	0.00281834670969505	1
376	0	[617.5]	1	0	0.497442286822178	0.502557713177821	24	1	7	9	1	0	0.00511542635564305	0
376	0	[607.6000000014901]	1	1	0.57923776879015	0.420762231209849	23	1	8	9	1	0	0.158475537580301	1
376	0	[594.3000000007451]	1	1	0.513222432995809	0.48677756700419	24	0	9	9	1	0	0.026444865991619	1
376	0	[832.0999999977648]	1	1	0.558829814084122	0.441170185915877	20	1	10	9	1	0	0.117659628168245	1
376	0	[776]	1	1	0.512488969076979	0.48751103092302	21	1	11	9	1	0	0.024977938153959	1
376	1	[618.3000000007451]	1	0	0.465504088198025	0.534495911801975	18	1	12	9	1	0	0.06899182360395	1
376	0	[533.1000000014901]	1	1	0.56040331287835	0.439596687121649	17	1	13	9	1	0	0.120806625756701	1
376	1	[452.1000000014901]	1	0	0.403214457126812	0.596785542873187	18	1	14	9	1	0	0.193571085746375	1
376	1	[543.1999999992549]	1	0	0.491102081334187	0.508897918665812	17	1	15	9	1	0	0.017795837331625	1
376	1	[502.3999999985099]	1	0	0.408056795114386	0.591943204885613	16	1	16	9	1	0	0.183886409771227	1
376	1	[814.8000000007451]	1	1	0.505152820826376	0.494847179173623	17	1	17	9	1	0	0.0103056416527531	0
376	0	[522.3999999985099]	1	1	0.562087375269302	0.437912624730697	16	1	18	9	1	0	0.124174750538605	1
376	0	[431.1000000014901]	1	1	0.574082710519717	0.425917289480282	17	1	19	9	1	0	0.148165421039435	1
376	1	[442.70000000298023]	1	0	0.428679983794593	0.571320016205406	17	1	20	9	1	0	0.142640032410813	1
376	1	[475.8999999985099]	1	0	0.481271364016553	0.518728635983446	18	0	21	9	1	0	0.037457271966893	1
376	0	[429.19999999925494]	1	1	0.567179503413939	0.43282049658606	28	0	22	9	1	0	0.134359006827879	1
376	1	[437.3999999985099]	1	0	0.425571754319079	0.57442824568092	21	1	23	9	1	0	0.148856491361841	1
376	1	[436.3999999985099]	1	0	0.422539470496022	0.577460529503977	19	0	24	9	1	0	0.154921059007955	1
376	0	[417]	1	1	0.558172236950166	0.441827763049833	17	1	25	9	1	0	0.116344473900333	1
376	1	[413.69999999925494]	2	0	0.474632902022893	0.525367097977106	53	1	1	10	1	1	0.050734195954213	1
376	0	[571.3000000007451]	2	1	0.562190104822109	0.43780989517789	68	1	2	10	1	1	0.124380209644219	1
376	0	[585.8000000007451]	2	1	0.512125590405994	0.487874409594005	71	1	3	10	1	1	0.024251180811989	1
376	1	[421.3999999985099]	2	0	0.427860531556625	0.572139468443374	74	1	4	10	1	1	0.144278936886749	1
376	1	[480.0999999977648]	2	0	0.453545484752192	0.546454515247807	80	1	5	10	1	1	0.092909030495615	1
376	0	[435.79999999701977]	2	1	0.531104987947341	0.468895012052658	82	1	6	10	1	1	0.062209975894683	1
376	1	[481.30000000074506]	2	0	0.402161392720057	0.597838607279942	82	1	7	10	1	1	0.195677214559885	1
376	1	[423.8999999985099]	2	0	0.441439916204899	0.5585600837951	81	1	8	10	1	1	0.117120167590201	1
376	0	[524.5]	2	1	0.578495569872849	0.42150443012715	87	1	9	10	1	1	0.156991139745699	1
376	0	[430.3999999985099]	2	1	0.567623782901766	0.432376217098233	89	1	10	10	1	1	0.135247565803533	1
376	0	[613.5]	2	1	0.534771612143397	0.465228387856602	87	1	11	10	1	1	0.069543224286795	1
376	1	[891.3000000007451]	2	1	0.520507094281855	0.479492905718144	87	0	12	10	1	1	0.041014188563711	0
376	0	[414.0999999977648]	2	1	0.594081373403144	0.405918626596856	93	1	13	10	1	1	0.188162746806288	1
376	1	[420.5]	2	0	0.425394946599428	0.574605053400572	93	1	14	10	1	1	0.149210106801144	1
376	0	[796.1999999992549]	2	1	0.588669411239564	0.411330588760435	92	1	15	10	1	1	0.177338822479129	1
376	1	[729.9000000022352]	2	1	0.512391564076103	0.487608435923896	91	0	16	10	1	1	0.024783128152207	0
376	0	[994.1999999992549]	2	1	0.525453552437794	0.474546447562205	90	1	17	10	1	1	0.050907104875589	1
376	1	[398.3999999985099]	2	0	0.469492029373889	0.53050797062611	94	1	18	10	1	1	0.061015941252221	1
376	1	[447.1000000014901]	2	0	0.475109126443665	0.524890873556334	94	1	19	10	1	1	0.049781747112669	1
376	1	[441.8999999985099]	2	0	0.449935413080012	0.550064586919987	95	1	20	10	1	1	0.100129173839975	1
376	0	[956.9000000022352]	2	1	0.516682774813545	0.483317225186455	97	1	21	10	1	1	0.03336554962709	1
376	1	[445.19999999925494]	2	0	0.437572122545861	0.562427877454138	97	1	22	10	1	1	0.124855754908277	1
376	1	[374.69999999925494]	2	0	0.403382032348369	0.59661796765163	97	1	23	10	1	1	0.193235935303261	1
376	1	[415.1000000014901]	2	0	0.402746050781687	0.597253949218312	96	1	24	10	1	1	0.194507898436625	1
376	1	[544.4000000022352]	2	0	0.480846867027888	0.519153132972111	97	1	25	10	1	1	0.038306265944223	1
376	0	[484.6000000014901]	1	1	0.591446981555648	0.408553018444351	64	0	1	11	0	1	0.182893963111297	0
376	0	[794.5]	1	1	0.507985188442898	0.492014811557101	75	1	2	11	0	1	0.015970376885797	0
376	1	[521.6000000014901]	1	1	0.572955349305975	0.427044650694024	80	1	3	11	0	1	0.145910698611951	1
376	0	[404.30000000074506]	1	0	0.405077822613147	0.594922177386852	80	1	4	11	0	1	0.189844354773705	1
376	1	[770.8999999985099]	1	1	0.513742894915976	0.486257105084023	75	0	5	11	0	1	0.027485789831953	1
376	0	[474.8999999985099]	1	0	0.403857471337205	0.596142528662794	72	0	6	11	0	1	0.192285057325589	1
376	0	[602.1000000014901]	1	0	0.486354589083886	0.513645410916113	84	1	7	11	0	1	0.027290821832227	1
376	1	[473.3999999985099]	1	1	0.579400993869974	0.420599006130025	84	1	8	11	0	1	0.158801987739949	1
376	0	[425.19999999925494]	1	0	0.457317703068486	0.542682296931513	86	1	9	11	0	1	0.085364593863027	1
376	1	[469.6000000014901]	1	1	0.599861946163834	0.400138053836165	85	1	10	11	0	1	0.199723892327669	1
376	1	[805.6000000014901]	1	1	0.533887925551744	0.466112074448255	86	1	11	11	0	1	0.067775851103489	1
376	0	[399.5999999977648]	1	0	0.45599144875079	0.544008551249209	83	0	12	11	0	1	0.088017102498419	1
376	0	[462.5]	1	0	0.446344920210449	0.55365507978955	87	1	13	11	0	1	0.107310159579101	1
376	0	[438.19999999925494]	1	0	0.48440572181249	0.51559427818751	87	1	14	11	0	1	0.03118855637502	1
376	1	[559.1000000014901]	1	1	0.582835858815747	0.417164141184252	85	1	15	11	0	1	0.165671717631495	1
376	1	[501.8999999985099]	1	1	0.598873209256067	0.401126790743932	89	1	16	11	0	1	0.197746418512135	1
376	1	[560.3000000007451]	1	1	0.559931238763664	0.440068761236335	85	0	17	11	0	1	0.119862477527329	1
376	1	[459.69999999925494]	1	1	0.592554849782311	0.407445150217688	91	1	18	11	0	1	0.185109699564623	1
376	0	[559.4000000022352]	1	0	0.496922189626435	0.503077810373564	92	1	19	11	0	1	0.00615562074712905	1
376	0	[470]	1	0	0.453163118519048	0.546836881480951	86	0	20	11	0	1	0.093673762961903	1
376	1	[495]	1	1	0.58118202387511	0.418817976124889	82	0	21	11	0	1	0.162364047750221	1
376	0	[435.80000000074506]	1	0	0.471714591251921	0.528285408748078	90	1	22	11	0	1	0.0565708174961569	1
376	0	[540.3999999985099]	1	0	0.431107750157996	0.568892249842003	90	1	23	11	0	1	0.137784499684007	1
376	0	[570.1000000014901]	1	0	0.481175222619387	0.518824777380612	87	0	24	11	0	1	0.0376495547612249	1
376	1	[507.79999999701977]	1	1	0.531924317117514	0.468075682882485	87	1	25	11	0	1	0.063848634235029	1
376	0	[632.6999999992549]	3	1	0.910192703052036	0.0898072969479636	67	1	1	12	1	1	0.820385406104072	1
376	1	[348.6000000014901]	3	0	0.0877600119373319	0.912239988062668	75	1	2	12	1	1	0.824479976125336	1
376	1	[365.6000000014901]	3	0	0.0656216128380492	0.93437838716195	68	0	3	12	1	1	0.868756774323901	1
376	1	[342.8999999985099]	3	0	0.0802192335038802	0.919780766496119	82	1	4	12	1	1	0.839561532992239	1
376	0	[324.8999999985099]	3	1	0.90110661873854	0.0988933812614595	75	0	5	12	1	1	0.802213237477081	1
376	1	[403.5]	3	0	0.100205246315389	0.89979475368461	72	0	6	12	1	1	0.799589507369221	1
376	0	[371.69999999925494]	3	1	0.865953340126104	0.134046659873895	74	1	7	12	1	1	0.731906680252209	1
376	0	[341.5]	3	1	0.882994592010559	0.11700540798944	76	1	8	12	1	1	0.765989184021119	1
376	0	[356.19999999925494]	3	1	0.885052384673994	0.114947615326005	71	0	9	12	1	1	0.770104769347989	1
376	1	[445.3999999985099]	3	0	0.0847402016231938	0.915259798376806	78	1	10	12	1	1	0.830519596753612	1
376	1	[458.5999999977648]	3	0	0.138361774542225	0.861638225457774	80	1	11	12	1	1	0.723276450915549	1
376	1	[376.69999999925494]	3	0	0.149432841145517	0.850567158854482	80	1	12	12	1	1	0.701134317708965	1
376	0	[368.70000000298023]	3	1	0.877710692318396	0.122289307681603	79	1	13	12	1	1	0.755421384636793	1
376	0	[354]	3	1	0.946920564788471	0.0530794352115289	81	1	14	12	1	1	0.893841129576942	1
376	1	[392.0999999977648]	3	0	0.134636824125197	0.865363175874802	88	1	15	12	1	1	0.730726351749605	1
376	1	[340.6000000014901]	3	0	0.139250156506865	0.860749843493134	88	1	16	12	1	1	0.721499686986269	1
376	1	[365]	3	0	0.107908483265706	0.892091516734293	84	0	17	12	1	1	0.784183033468587	1
376	1	[398.4000000022352]	3	0	0.0966277721850693	0.90337222781493	86	1	18	12	1	1	0.806744455629861	1
376	1	[411.9000000022352]	3	0	0.0507662163387587	0.949233783661241	83	0	19	12	1	1	0.898467567322482	1
376	1	[375.4000000022352]	3	0	0.0767708801728908	0.923229119827109	86	1	20	12	1	1	0.846458239654218	1
376	0	[385.1000000014901]	3	1	0.925867814164334	0.0741321858356656	87	1	21	12	1	1	0.851735628328668	1
376	0	[367.5]	3	1	0.851904147976812	0.148095852023187	85	0	22	12	1	1	0.703808295953625	1
376	0	[358]	3	1	0.908649054950184	0.0913509450498155	88	1	23	12	1	1	0.817298109900368	1
376	0	[381.79999999701977]	3	1	0.92911857778394	0.0708814222160595	87	1	24	12	1	1	0.85823715556788	1
376	0	[302.1000000014901]	3	1	0.879736281218503	0.120263718781496	84	0	25	12	1	1	0.759472562437007	1
