ID	choice	rt	choice_cond	state	contrast_left	contrast_right	mu	correct	trials	blocks	contrast	congruence	con_diff_choice	ecoperf
243	1	[967.7000000029802]	3	0	0.122486068819203	0.877513931180796	84	1	1	1	1	1	0.755027862361593	1
243	1	[373.5999999977648]	3	0	0.104631170491206	0.895368829508793	30	0	2	1	1	1	0.790737659017587	1
243	0	[376.80000000074506]	3	1	0.85276456127626	0.14723543872374	85	1	3	1	1	1	0.70552912255252	1
243	0	[334.3999999985099]	3	1	0.947039383120705	0.0529606168792941	92	1	4	1	1	1	0.894078766241411	1
243	1	[359.1000000014901]	3	0	0.0512861726898186	0.948713827310181	91	1	5	1	1	1	0.897427654620362	1
243	0	[575.6999999992549]	3	1	0.885449357418332	0.114550642581667	99	1	6	1	1	1	0.770898714836665	1
243	0	[453.5999999977648]	3	1	0.904366455350695	0.0956335446493044	31	0	7	1	1	1	0.808732910701391	1
243	0	[328.5999999977648]	3	1	0.851455948610928	0.148544051389071	89	1	8	1	1	1	0.702911897221857	1
243	1	[389.8999999985099]	3	0	0.089316808255057	0.910683191744942	87	1	9	1	1	1	0.821366383489885	1
243	0	[399]	3	0	0.0978718532980549	0.902128146701945	23	1	10	1	1	1	0.80425629340389	0
243	1	[366.4000000022352]	3	0	0.0992222438510539	0.900777756148946	84	1	11	1	1	1	0.801555512297892	1
243	0	[364.6000000014901]	3	1	0.870540146464295	0.129459853535704	21	0	12	1	1	1	0.741080292928591	1
243	0	[364.0999999977648]	3	0	0.0661671804242453	0.933832819575754	26	1	13	1	1	1	0.867665639151509	0
243	1	[310.1000000014901]	3	0	0.0604236248577468	0.939576375142253	79	1	14	1	1	1	0.879152750284506	1
243	1	[303.5]	3	0	0.146759078114785	0.853240921885214	74	1	15	1	1	1	0.706481843770429	1
243	0	[500.5999999977648]	3	0	0.0515695116666255	0.948430488333374	33	0	16	1	1	1	0.896860976666748	0
243	1	[300.80000000074506]	3	0	0.0778632476236281	0.922136752376371	30	0	17	1	1	1	0.844273504752743	1
243	1	[384.5]	3	0	0.137173838749541	0.862826161250458	89	1	18	1	1	1	0.725652322500917	1
243	0	[604.1999999992549]	3	1	0.930895749824742	0.0691042501752572	92	1	19	1	1	1	0.861791499649485	1
243	0	[574.5]	3	1	0.889265196990384	0.110734803009615	12	0	20	1	1	1	0.778530393980769	1
243	1	[380.69999999925494]	3	1	0.857453617105711	0.142546382894288	21	0	21	1	1	1	0.714907234211423	0
243	0	[374.1000000014901]	3	1	0.927340718471921	0.0726592815280787	30	0	22	1	1	1	0.854681436943842	1
243	0	[311,327,870.9000000022352]	3	1	0.911222902420865	0.0887770975791342	78	1	23	1	1	1	0.822445804841731	1
243	0	[308.8999999985099]	3	1	0.90315869829268	0.0968413017073197	89	1	24	1	1	1	0.80631739658536	1
243	0	[399.69999999925494]	3	0	0.136652221568361	0.863347778431638	19	0	25	1	1	1	0.726695556863277	0
243	0	[524.6000000014901]	2	1	0.544231200461157	0.455768799538842	38	0	1	2	0	1	0.0884624009223151	0
243	1	[419.30000000074506]	2	0	0.419912266533596	0.580087733466403	74	0	2	2	0	1	0.160175466932807	0
243	0	[468.5]	2	0	0.462141834052371	0.537858165947628	79	1	3	2	0	1	0.075716331895257	1
243	0	[556.9000000022352]	2	0	0.499458257269059	0.50054174273094	74	1	4	2	0	1	0.00108348546188097	1
243	1	[543.0999999977648]	2	1	0.570600090418516	0.429399909581483	78	1	5	2	0	1	0.141200180837033	1
243	1	[620.9000000022352]	2	1	0.58040774501727	0.419592254982729	71	1	6	2	0	1	0.160815490034541	1
243	0	[546]	2	1	0.510271243899317	0.489728756100682	28	0	7	2	0	1	0.020542487798635	0
243	1	[236.59999999776483]	2	0	0.413469957835441	0.586530042164558	80	0	8	2	0	1	0.173060084329117	0
243	0	[604.5999999977648]	2	0	0.420024991568697	0.579975008431302	86	1	9	2	0	1	0.159950016862605	1
243	1	[374.9000000022352]	2	0	0.422754623529965	0.577245376470035	82	0	10	2	0	1	0.15449075294007	0
243	0	[148.69999999925494]	2	0	0.485918556730452	0.514081443269547	58	1	11	2	0	1	0.028162886539095	1
243	1	[476.6000000014901]	2	1	0.538931723941653	0.461068276058346	74	1	12	2	0	1	0.077863447883307	1
243	1	[317.5999999977648]	2	0	0.435227452333341	0.564772547666658	81	0	13	2	0	1	0.129545095333317	0
243	1	[548.5]	2	0	0.458708664021049	0.54129133597895	54	0	14	2	0	1	0.082582671957901	0
243	0	[388.69999999925494]	2	1	0.5782162668355	0.421783733164499	81	0	15	2	0	1	0.156432533671001	0
243	0	[404.3999999985099]	2	0	0.405822352347431	0.594177647652568	85	1	16	2	0	1	0.188355295305137	1
243	0	[420.5]	2	1	0.534051639676928	0.465948360323071	25	0	17	2	0	1	0.068103279353857	0
243	0	[469.4000000022352]	2	1	0.59050224713938	0.409497752860619	79	0	18	2	0	1	0.181004494278761	0
243	0	[749.1000000014901]	2	0	0.489168802871138	0.510831197128861	81	1	19	2	0	1	0.021662394257723	1
243	0	[645.3000000007451]	2	1	0.580208919139034	0.419791080860965	71	0	20	2	0	1	0.160417838278069	0
243	0	[411.30000000074506]	2	1	0.5898775554739	0.410122444526099	87	0	21	2	0	1	0.179755110947801	0
243	0	[523.5]	2	1	0.520101691419834	0.479898308580165	81	0	22	2	0	1	0.040203382839669	0
243	0	[737.6999999992549]	2	0	0.442295226135511	0.557704773864489	83	1	23	2	0	1	0.115409547728978	1
243	0	[435.8999999985099]	2	0	0.43648927222729	0.563510727772709	87	1	24	2	0	1	0.127021455545419	1
243	0	[501.19999999925494]	2	1	0.505398011432098	0.494601988567901	58	0	25	2	0	1	0.010796022864197	0
243	1	[420.9000000022352]	3	0	0.0558118550655619	0.944188144934438	11	1	1	3	1	0	0.888376289868876	1
243	0	[357.9000000022352]	3	1	0.874061309904161	0.125938690095838	13	1	2	3	1	0	0.748122619808323	1
243	1	[327.69999999925494]	3	0	0.0705273989567595	0.92947260104324	80	0	3	3	1	0	0.858945202086481	1
243	0	[479.5]	3	1	0.858362914458254	0.141637085541745	21	1	4	3	1	0	0.716725828916509	1
243	1	[357.1000000014901]	3	0	0.14670548245569	0.853294517544309	16	1	5	3	1	0	0.706589035088619	1
243	1	[369.1000000014901]	3	1	0.884126504773493	0.115873495226506	19	0	6	3	1	0	0.768253009546987	0
243	0	[426.4000000022352]	3	0	0.0822685831383035	0.917731416861696	36	0	7	3	1	0	0.835462833723392	0
243	0	[348.5999999977648]	3	1	0.932086668530791	0.0679133314692082	59	0	8	3	1	0	0.864173337061583	1
243	0	[332.1000000014901]	3	1	0.929757300604642	0.0702426993953574	29	1	9	3	1	0	0.859514601209285	1
243	1	[394.70000000298023]	3	0	0.0887207923998964	0.911279207600103	73	0	10	3	1	0	0.822558415200207	1
243	0	[383.5999999977648]	3	1	0.871343333724956	0.128656666275044	61	0	11	3	1	0	0.742686667449912	1
243	1	[365.19999999925494]	3	0	0.0941633122299061	0.905836687770093	18	1	12	3	1	0	0.811673375540187	1
243	0	[444.69999999925494]	3	1	0.867242472410983	0.132757527589016	23	1	13	3	1	0	0.734484944821967	1
243	1	[404.69999999925494]	3	1	0.916708325964101	0.0832916740358982	83	1	14	3	1	0	0.833416651928203	0
243	0	[390]	3	0	0.0851074203496508	0.914892579650349	82	1	15	3	1	0	0.829785159300698	0
243	1	[391.80000000074506]	3	0	0.116218857216746	0.883781142783253	29	1	16	3	1	0	0.767562285566507	1
243	0	[332.0999999977648]	3	1	0.913932601545896	0.086067398454104	33	1	17	3	1	0	0.827865203091792	1
243	1	[394.4000000022352]	3	0	0.114347573303752	0.885652426696247	31	1	18	3	1	0	0.771304853392495	1
243	0	[324.20000000298023]	3	1	0.905831641424058	0.0941683585759411	71	0	19	3	1	0	0.811663282848117	1
243	1	[361.69999999925494]	3	0	0.147025845302743	0.852974154697256	28	1	20	3	1	0	0.705948309394513	1
243	0	[360.80000000074506]	3	1	0.907170263986321	0.0928297360136781	28	1	21	3	1	0	0.814340527972643	1
243	0	[789.1999999992549]	3	1	0.906132020117305	0.0938679798826945	38	1	22	3	1	0	0.812264040234611	1
243	1	[387.6000000014901]	3	1	0.912290769937564	0.087709230062436	29	0	23	3	1	0	0.824581539875128	0
243	1	[374.3999999985099]	3	0	0.126720688708141	0.873279311291858	69	0	24	3	1	0	0.746558622583717	1
243	1	[350.69999999925494]	3	0	0.0736912285053189	0.926308771494681	19	0	25	3	1	0	0.852617542989362	1
243	1	[392.0999999977648]	3	0	0.136538025043345	0.863461974956654	19	0	1	4	0	0	0.726923949913309	0
243	1	[335.69999999925494]	3	1	0.866220994696927	0.133779005303072	13	1	2	4	0	0	0.732441989393855	1
243	1	[381]	3	0	0.139856387024185	0.860143612975814	14	0	3	4	0	0	0.720287225951629	0
243	0	[360.1000000014901]	3	1	0.873819994342207	0.126180005657792	87	1	4	4	0	0	0.747639988684415	0
243	0	[575.8000000007451]	3	0	0.0589039778441937	0.941096022155806	33	1	5	4	0	0	0.882192044311612	1
243	0	[360.69999999925494]	3	0	0.0721253522944403	0.927874647705559	19	0	6	4	0	0	0.855749295411119	1
243	0	[349.5999999977648]	3	1	0.938227150575358	0.0617728494246413	39	0	7	4	0	0	0.876454301150717	0
243	0	[396.6000000014901]	3	0	0.0598473161599917	0.940152683840008	13	1	8	4	0	0	0.880305367680016	1
243	0	[462.0999999977648]	3	1	0.864536915620482	0.135463084379517	34	0	9	4	0	0	0.729073831240965	0
243	1	[415.5]	3	1	0.893957546937504	0.106042453062495	34	0	10	4	0	0	0.787915093875009	1
243	1	[425.1000000014901]	3	1	0.893710437153792	0.106289562846207	19	1	11	4	0	0	0.787420874307585	1
243	0	[414.5]	3	0	0.067601611576081	0.932398388423919	16	0	12	4	0	0	0.864796776847838	1
243	1	[316.20000000298023]	3	1	0.859539083880895	0.140460916119104	19	0	13	4	0	0	0.719078167761791	1
243	1	[316.8999999985099]	3	1	0.878006725890471	0.121993274109528	15	1	14	4	0	0	0.756013451780943	1
243	1	[352]	3	0	0.0871599793886969	0.912840020611303	35	0	15	4	0	0	0.825680041222606	0
243	1	[339.19999999925494]	3	0	0.070516075756712	0.929483924243288	79	1	16	4	0	0	0.858967848486576	0
243	0	[337.4000000022352]	3	0	0.0947757255759467	0.905224274424053	24	1	17	4	0	0	0.810448548848106	1
243	1	[676.9000000022352]	3	1	0.885538591298952	0.114461408701047	19	1	18	4	0	0	0.771077182597905	1
243	0	[325.0999999977648]	3	1	0.892804804714649	0.10719519528535	26	0	19	4	0	0	0.785609609429299	0
243	1	[340.69999999925494]	3	0	0.0919746561024152	0.908025343897584	84	1	20	4	0	0	0.816050687795169	0
243	0	[499.8999999985099]	3	0	0.063078667577647	0.936921332422353	12	1	21	4	0	0	0.873842664844706	1
243	0	[491]	3	1	0.872128229712404	0.127871770287595	34	0	22	4	0	0	0.744256459424809	0
243	1	[462.5999999977648]	3	0	0.0573790793884088	0.942620920611591	28	0	23	4	0	0	0.885241841223182	0
243	0	[326.5]	3	1	0.919801719159173	0.0801982808408262	67	1	24	4	0	0	0.839603438318347	0
243	1	[342.30000000074506,382.30000000074506]	3	1	0.871571166413562	0.128428833586437	74	1	25	4	0	0	0.743142332827125	1
243	0	[308.5]	1	1	0.539976856611686	0.460023143388313	21	0	1	5	0	0	0.079953713223373	0
243	1	[444.20000000298023]	1	1	0.563502079937129	0.43649792006287	27	0	2	5	0	0	0.127004159874259	1
243	1	[424.29999999701977]	1	0	0.443835076174606	0.556164923825393	30	0	3	5	0	0	0.112329847650787	0
243	1	[324.79999999701977]	1	1	0.560789743495158	0.439210256504842	27	1	4	5	0	0	0.121579486990316	1
243	0	[621.1999999992549]	1	0	0.437848491002839	0.56215150899716	23	1	5	5	0	0	0.124303017994321	1
243	1	[479.3999999985099]	1	0	0.466002599315153	0.533997400684846	14	0	6	5	0	0	0.067994801369693	0
243	0	[348.69999999925494]	1	1	0.590264918609948	0.409735081390052	12	0	7	5	0	0	0.180529837219896	0
243	1	[367.8999999985099]	1	1	0.509640399706901	0.490359600293098	31	0	8	5	0	0	0.019280799413803	1
243	1	[639.6999999992549]	1	0	0.490552021209755	0.509447978790245	56	1	9	5	0	0	0.01889595758049	0
243	1	[572.8000000007451]	1	0	0.487085701597562	0.512914298402437	42	0	10	5	0	0	0.025828596804875	0
243	0	[556.4000000022352]	1	1	0.523838889792252	0.476161110207747	32	0	11	5	0	0	0.047677779584505	0
243	0	[525.3999999985099]	1	0	0.492644584870968	0.507355415129031	32	0	12	5	0	0	0.014710830258063	1
243	0	[319.3999999985099]	1	0	0.454552988500507	0.545447011499492	22	1	13	5	0	0	0.090894022998985	1
243	1	[406]	1	0	0.432305624533857	0.567694375466142	61	1	14	5	0	0	0.135388750932285	0
243	0	[348.69999999925494]	1	0	0.433388585431009	0.56661141456899	33	1	15	5	0	0	0.133222829137981	1
243	0	[765.6999999992549]	1	1	0.557589454420584	0.442410545579415	70	1	16	5	0	0	0.115178908841169	0
243	0	[679.1999999992549]	1	1	0.591097082902224	0.408902917097775	38	0	17	5	0	0	0.182194165804449	0
243	1	[416.3999999985099]	1	0	0.423295465203846	0.576704534796153	61	1	18	5	0	0	0.153409069592307	0
243	0	[400]	1	0	0.444848473386085	0.555151526613914	35	1	19	5	0	0	0.110303053227829	1
243	0	[396.69999999925494]	1	1	0.55974187634952	0.440258123650479	41	0	20	5	0	0	0.119483752699041	0
243	1	[524.6000000014901]	1	0	0.47388461041755	0.526115389582449	41	0	21	5	0	0	0.052230779164899	0
243	0	[332.5999999977648]	1	1	0.529300432598243	0.470699567401756	37	0	22	5	0	0	0.058600865196487	0
243	0	[260.79999999701977]	1	1	0.517513342956812	0.482486657043187	33	0	23	5	0	0	0.035026685913625	0
243	1	[596.8000000007451]	1	1	0.593234527431971	0.406765472568028	38	0	24	5	0	0	0.186469054863943	1
243	0	[471.5999999977648]	1	1	0.515690468732125	0.484309531267874	46	0	25	5	0	0	0.031380937464251	0
243	1	[421.0999999977648]	3	0	0.0785218479086958	0.921478152091304	79	0	1	6	0	1	0.842956304182608	0
243	0	[364.5999999977648]	3	0	0.127969282298526	0.872030717701473	71	1	2	6	0	1	0.744061435402947	1
243	0	[652.5999999977648]	3	0	0.11361925808017	0.886380741919829	65	1	3	6	0	1	0.772761483839659	1
243	0	[462.80000000074506]	3	0	0.142534596177436	0.857465403822563	38	0	4	6	0	1	0.714930807645127	1
243	0	[486.3999999985099]	3	1	0.891883029277718	0.108116970722281	69	0	5	6	0	1	0.783766058555437	0
243	0	[340.5]	3	1	0.944029575186951	0.0559704248130484	35	1	6	6	0	1	0.888059150373903	0
243	1	[399.69999999925494]	3	1	0.890367007108927	0.109632992891072	73	1	7	6	0	1	0.780734014217855	1
243	0	[380.29999999701977]	3	0	0.14140724529884	0.858592754701159	71	1	8	6	0	1	0.717185509402319	1
243	1	[540.7999999970198]	3	1	0.851618844710701	0.148381155289298	75	1	9	6	0	1	0.703237689421403	1
243	1	[430.5999999977648]	3	0	0.14529408983779	0.854705910162209	33	1	10	6	0	1	0.709411820324419	0
243	0	[479.0999999977648]	3	0	0.0549644688679117	0.945035531132088	74	1	11	6	0	1	0.890071062264176	1
243	0	[167.5]	3	0	0.0894837689735186	0.910516231026481	28	0	12	6	0	1	0.821032462052962	1
243	1	[468.69999999925494]	3	1	0.889688027474096	0.110311972525903	38	0	13	6	0	1	0.779376054948193	1
243	1	[430.79999999701977]	3	1	0.942434047729412	0.0575659522705871	75	1	14	6	0	1	0.884868095458825	1
243	0	[428.69999999925494]	3	0	0.109151710492289	0.89084828950771	77	1	15	6	0	1	0.781696579015421	1
243	0	[341.8999999985099]	3	1	0.933816548314285	0.0661834516857144	32	1	16	6	0	1	0.867633096628571	0
243	0	[378.5]	3	1	0.874830120729009	0.12516987927099	70	0	17	6	0	1	0.749660241458019	0
243	1	[375.69999999925494]	3	1	0.934854736189432	0.0651452638105671	76	1	18	6	0	1	0.869709472378865	1
243	0	[308.80000000074506]	3	1	0.90180676439971	0.0981932356002892	76	0	19	6	0	1	0.803613528799421	0
243	1	[453.69999999925494]	3	1	0.850078372548342	0.149921627451657	82	1	20	6	0	1	0.700156745096685	1
243	1	[463.5]	3	0	0.0913567057484314	0.908643294251568	26	1	21	6	0	1	0.817286588503137	0
243	0	[544.3999999985099]	3	0	0.139240557588413	0.860759442411587	80	1	22	6	0	1	0.721518884823174	1
243	1	[636.5]	3	1	0.908733738769807	0.0912662612301928	35	0	23	6	0	1	0.817467477539614	1
243	1	[325.1000000014901]	3	0	0.0514344625879182	0.948565537412081	81	0	24	6	0	1	0.897131074824163	0
243	1	[460.69999999925494]	3	1	0.887541615493802	0.112458384506197	79	1	25	6	0	1	0.775083230987605	1
243	0	[326.69999999925494]	1	0	0.484145304359166	0.515854695640833	71	0	1	7	1	1	0.031709391281667	0
243	1	[719.5999999977648]	1	1	0.509477856577603	0.490522143422396	66	0	2	7	1	1	0.0189557131552071	0
243	0	[436.5]	1	1	0.541826911467404	0.458173088532595	63	1	3	7	1	1	0.0836538229348091	1
243	0	[406.69999999925494]	1	0	0.448604036087245	0.551395963912754	35	1	4	7	1	1	0.102791927825509	0
243	0	[615.9000000022352]	1	1	0.526390961787743	0.473609038212256	62	1	5	7	1	1	0.0527819235754871	1
243	0	[468.69999999925494]	1	0	0.447848549746534	0.552151450253465	33	0	6	7	1	1	0.104302900506931	0
243	1	[398.9000000022352]	1	0	0.438333146079739	0.56166685392026	66	1	7	7	1	1	0.123333707840521	1
243	0	[557]	1	0	0.463841148987358	0.536158851012641	33	1	8	7	1	1	0.072317702025283	0
243	1	[524.6999999992549]	1	0	0.499154141386888	0.500845858613111	50	1	9	7	1	1	0.00169171722622302	1
243	0	[503]	1	1	0.546956278688989	0.45304372131101	36	0	10	7	1	1	0.093912557377979	1
243	0	[644.5]	1	1	0.54140201714428	0.458597982855719	60	1	11	7	1	1	0.082804034288561	1
243	1	[470.69999999925494]	1	0	0.476870654011422	0.523129345988577	42	0	12	7	1	1	0.046258691977155	1
243	0	[453.6000000014901]	1	1	0.519591553466143	0.480408446533856	50	0	13	7	1	1	0.039183106932287	1
243	1	[523.7999999970198]	1	0	0.420552978033734	0.579447021966265	64	1	14	7	1	1	0.158894043932531	1
243	1	[468.5]	1	1	0.594003462330877	0.405996537669122	59	0	15	7	1	1	0.188006924661755	0
243	0	[348.3999999985099]	1	1	0.528279311040888	0.471720688959111	43	0	16	7	1	1	0.056558622081777	1
243	0	[463.80000000074506]	1	0	0.464297713169299	0.5357022868307	65	0	17	7	1	1	0.071404573661401	0
243	1	[384.0999999977648]	1	0	0.406655752564001	0.593344247435998	75	1	18	7	1	1	0.186688494871997	1
243	0	[548.3000000007451]	1	1	0.543310473640376	0.456689526359623	68	1	19	7	1	1	0.086620947280753	1
243	0	[478.6000000014901]	1	0	0.422982469434634	0.577017530565365	39	0	20	7	1	1	0.154035061130731	0
243	0	[444.69999999925494]	1	1	0.526771057420908	0.473228942579091	64	0	21	7	1	1	0.053542114841817	1
243	0	[552.0999999977648]	1	1	0.584124716046541	0.415875283953458	65	1	22	7	1	1	0.168249432093083	1
243	1	[596.1999999992549]	1	0	0.432511267108483	0.567488732891516	40	0	23	7	1	1	0.134977465783033	1
243	0	[531.6000000014901]	1	1	0.563792659676624	0.436207340323376	59	1	24	7	1	1	0.127585319353248	1
243	0	[972.8000000007451]	1	0	0.48989921912173	0.510100780878269	37	0	25	7	1	1	0.020201561756539	0
243	0	[357.19999999925494]	1	0	0.466201148686757	0.533798851313242	40	0	1	8	1	0	0.067597702626485	0
243	0	[380.5]	1	1	0.521101384529032	0.478898615470967	34	1	2	8	1	0	0.042202769058065	1
243	1	[420.1000000014901]	1	0	0.411140328830555	0.588859671169444	65	0	3	8	1	0	0.177719342338889	1
243	0	[380.70000000298023]	1	0	0.409043517599499	0.590956482400501	33	0	4	8	1	0	0.181912964801002	0
243	1	[500.80000000074506]	1	1	0.591042839116562	0.408957160883438	36	0	5	8	1	0	0.182085678233124	0
243	1	[356.69999999925494]	1	1	0.582733061070866	0.417266938929133	23	0	6	8	1	0	0.165466122141733	0
243	1	[507.8999999985099]	1	0	0.439949516794769	0.56005048320523	31	1	7	8	1	0	0.120100966410461	1
243	1	[542.5]	1	0	0.446988961741651	0.553011038258349	62	0	8	8	1	0	0.106022076516698	1
243	0	[420.80000000074506]	1	1	0.549008695943057	0.450991304056942	63	0	9	8	1	0	0.098017391886115	1
243	0	[319.30000000074506]	1	1	0.562908871668161	0.437091128331838	30	1	10	8	1	0	0.125817743336323	1
243	0	[356.5]	1	0	0.446494658826021	0.553505341173979	27	0	11	8	1	0	0.107010682347958	0
243	1	[341.69999999925494]	1	1	0.508546516481903	0.491453483518096	70	1	12	8	1	0	0.017093032963807	0
243	0	[382.5]	1	0	0.486564776277476	0.513435223722523	50	1	13	8	1	0	0.026870447445047	0
243	0	[495.19999999925494]	1	0	0.451928511847954	0.548071488152045	50	0	14	8	1	0	0.096142976304091	0
243	0	[263.79999999701977]	1	1	0.538223506575174	0.461776493424826	45	0	15	8	1	0	0.076447013150348	1
243	0	[477.3999999985099]	1	1	0.574141801534073	0.425858198465926	39	1	16	8	1	0	0.148283603068147	1
243	1	[375.19999999925494]	1	0	0.401105962636047	0.598894037363952	33	1	17	8	1	0	0.197788074727905	1
243	0	[604.5]	1	1	0.534021131457596	0.465978868542403	61	0	18	8	1	0	0.068042262915193	1
243	0	[478.80000000074506]	1	1	0.524406219663032	0.475593780336967	31	1	19	8	1	0	0.048812439326065	1
243	0	[366.69999999925494]	1	0	0.492338162893477	0.507661837106522	63	1	20	8	1	0	0.015323674213045	0
243	0	[405]	1	1	0.590202071748146	0.409797928251853	26	1	21	8	1	0	0.180404143496293	1
243	0	[428.9000000022352]	1	1	0.514435853738679	0.48556414626132	33	1	22	8	1	0	0.028871707477359	1
243	0	[229.69999999925494,365.5,525.5]	1	1	0.576686425374249	0.42331357462575	26	0	23	8	1	0	0.153372850748499	1
243	0	[110.89999999850988,255,398.8999999985099,503.0999999977648]	1	0	0.448748204290063	0.551251795709936	39	0	24	8	1	0	0.102503591419873	0
243	0	[380.9000000022352]	1	0	0.444227708091511	0.555772291908488	31	0	25	8	1	0	0.111544583816977	0
243	0	[359.1000000014901]	2	1	0.503626783172914	0.496373216827086	61	0	1	9	0	0	0.00725356634582797	0
243	0	[735.1999999992549]	2	0	0.451998723990804	0.548001276009195	38	1	2	9	0	0	0.096002552018391	1
243	0	[572]	2	1	0.56795951284813	0.432040487151869	43	0	3	9	0	0	0.135919025696261	0
243	0	[460.3999999985099]	2	1	0.552271994073269	0.44772800592673	31	0	4	9	0	0	0.104543988146539	0
243	0	[484.30000000074506]	2	0	0.466167789757791	0.533832210242208	36	1	5	9	0	0	0.067664420484417	1
243	1	[916.7000000029802]	2	0	0.437943176066828	0.562056823933171	40	0	6	9	0	0	0.124113647866343	0
243	0	[462.5999999977648]	2	1	0.548228522539766	0.451771477460233	30	0	7	9	0	0	0.096457045079533	0
243	1	[375]	2	0	0.48365348337435	0.516346516625649	50	0	8	9	0	0	0.032693033251299	0
243	0	[453.8999999985099]	2	1	0.541221532450897	0.458778467549102	47	0	9	9	0	0	0.082443064901795	0
243	0	[638.8000000007451]	2	0	0.441746864723736	0.558253135276264	45	1	10	9	0	0	0.116506270552528	1
243	0	[542.6999999992549]	2	1	0.524550154688945	0.475449845311054	44	0	11	9	0	0	0.0491003093778909	0
243	1	[759.1000000014901]	2	0	0.485138279848998	0.514861720151001	57	0	12	9	0	0	0.029723440302003	0
243	0	[380.5]	2	0	0.452505771875317	0.547494228124682	39	1	13	9	0	0	0.094988456249365	1
243	0	[415.1000000014901]	2	0	0.421794884294882	0.578205115705117	36	1	14	9	0	0	0.156410231410235	1
243	0	[542.6999999992549]	2	0	0.463927496318967	0.536072503681033	34	1	15	9	0	0	0.072145007362066	1
243	0	[423.5]	2	0	0.492661804396371	0.507338195603628	27	1	16	9	0	0	0.0146763912072571	1
243	1	[475.6000000014901]	2	1	0.579522357947819	0.42047764205218	26	1	17	9	0	0	0.159044715895639	1
243	0	[380.19999999925494]	2	1	0.594325171032312	0.405674828967687	29	0	18	9	0	0	0.188650342064625	0
243	1	[387.5999999977648]	2	1	0.569311863724408	0.430688136275591	23	1	19	9	0	0	0.138623727448817	1
243	1	[366.80000000074506]	2	1	0.56076571771546	0.439234282284539	33	1	20	9	0	0	0.121531435430921	1
243	1	[400.5]	2	1	0.578141830999129	0.42185816900087	31	1	21	9	0	0	0.156283661998259	1
243	1	[300.5]	2	0	0.484184731746147	0.515815268253852	48	0	22	9	0	0	0.031630536507705	0
243	0	[542.8000000007451]	2	0	0.445482273037531	0.554517726962469	24	1	23	9	0	0	0.109035453924938	1
243	0	[428.3999999985099]	2	0	0.478045562824856	0.521954437175143	37	0	24	9	0	0	0.043908874350287	1
243	0	[430]	2	1	0.52337078341807	0.476629216581929	39	0	25	9	0	0	0.0467415668361409	0
243	0	[452.30000000074506]	2	0	0.422485222133059	0.577514777866941	33	0	1	10	1	1	0.155029555733882	0
243	0	[407]	2	1	0.55979507810259	0.440204921897409	57	1	2	10	1	1	0.119590156205181	1
243	1	[435.9000000022352]	2	1	0.53502740828398	0.464972591716019	40	0	3	10	1	1	0.070054816567961	0
243	1	[503.19999999925494]	2	0	0.441091175821408	0.558908824178592	66	1	4	10	1	1	0.117817648357184	1
243	0	[587.6999999992549]	2	1	0.514816285178691	0.485183714821308	67	1	5	10	1	1	0.029632570357383	1
243	0	[428.69999999925494]	2	1	0.551930377268344	0.448069622731655	75	1	6	10	1	1	0.103860754536689	1
243	1	[572.6999999992549]	2	0	0.499490015193897	0.500509984806102	63	1	7	10	1	1	0.00101996961220496	1
243	1	[524]	2	0	0.450252032042368	0.549747967957631	68	1	8	10	1	1	0.099495935915263	1
243	0	[836.8000000007451]	2	1	0.586253221465855	0.413746778534144	76	1	9	10	1	1	0.172506442931711	1
243	0	[480.5999999977648]	2	1	0.573740122752484	0.426259877247515	71	1	10	10	1	1	0.147480245504969	1
243	1	[615.1999999992549]	2	0	0.48087206808148	0.519127931918519	72	1	11	10	1	1	0.0382558638370391	1
243	0	[492.80000000074506]	2	1	0.561315952949779	0.43868404705022	72	1	12	10	1	1	0.122631905899559	1
243	1	[436.6000000014901]	2	0	0.486046261327142	0.513953738672857	76	1	13	10	1	1	0.027907477345715	1
243	1	[692.3999999985099]	2	0	0.405295017975963	0.594704982024036	83	1	14	10	1	1	0.189409964048073	1
243	0	[541.6999999992549]	2	1	0.515421175523693	0.484578824476306	76	1	15	10	1	1	0.030842351047387	1
243	1	[431.3999999985099]	2	0	0.433797365261337	0.566202634738662	76	1	16	10	1	1	0.132405269477325	1
243	1	[428.30000000074506]	2	0	0.430812409479059	0.56918759052094	75	1	17	10	1	1	0.138375181041881	1
243	0	[455.29999999701977]	2	1	0.560309952590796	0.439690047409203	76	1	18	10	1	1	0.120619905181593	1
243	0	[511.30000000074506]	2	1	0.518954645284239	0.48104535471576	70	1	19	10	1	1	0.037909290568479	1
243	1	[468.5]	2	0	0.424825424954068	0.575174575045931	77	1	20	10	1	1	0.150349150091863	1
243	1	[727.5]	2	0	0.467298627916002	0.532701372083997	78	1	21	10	1	1	0.065402744167995	1
243	1	[421]	2	0	0.438168887283011	0.561831112716988	75	1	22	10	1	1	0.123662225433977	1
243	0	[431.3999999985099]	2	1	0.538358112415279	0.46164188758472	81	1	23	10	1	1	0.076716224830559	1
243	1	[452.5]	2	1	0.501090645850995	0.498909354149004	70	0	24	10	1	1	0.00218129170199105	0
243	1	[709.1999999992549]	2	0	0.471129428338563	0.528870571661436	82	0	25	10	1	1	0.057741143322873	1
243	0	[456.5]	1	0	0.418381062198456	0.581618937801543	64	1	1	11	0	1	0.163237875603087	1
243	0	[388.20000000298023]	1	0	0.461238283416115	0.538761716583884	72	1	2	11	0	1	0.0775234331677691	1
243	0	[412]	1	0	0.420123916878783	0.579876083121216	81	1	3	11	0	1	0.159752166242433	1
243	0	[405.3999999985099]	1	0	0.465265405566145	0.534734594433854	39	0	4	11	0	1	0.069469188867709	1
243	0	[359.5]	1	1	0.503982622857887	0.496017377142112	64	0	5	11	0	1	0.00796524571577495	0
243	1	[429.30000000074506]	1	1	0.58691433014576	0.413085669854239	41	0	6	11	0	1	0.173828660291521	1
243	0	[423.3999999985099]	1	0	0.48554645843359	0.514453541566409	74	1	7	11	0	1	0.028907083132819	1
243	0	[573.8000000007451]	1	0	0.494236087298687	0.505763912701312	41	0	8	11	0	1	0.011527825402625	1
243	0	[460.5]	1	0	0.476806680950845	0.523193319049154	64	1	9	11	0	1	0.046386638098309	1
243	1	[933.5999999977648]	1	0	0.410842045805153	0.589157954194846	38	1	10	11	0	1	0.178315908389693	0
243	0	[359]	1	1	0.572878708693189	0.42712129130681	33	1	11	11	0	1	0.145757417386379	0
243	0	[390.5999999977648]	1	0	0.491145721451477	0.508854278548522	64	1	12	11	0	1	0.0177085570970451	1
243	1	[748.5999999977648]	1	1	0.514401846709874	0.485598153290125	67	1	13	11	0	1	0.028803693419749	1
243	0	[357.5]	1	1	0.593617703119898	0.406382296880101	39	1	14	11	0	1	0.187235406239797	0
243	0	[903.3999999985099]	1	1	0.527300114118436	0.472699885881563	78	0	15	11	0	1	0.054600228236873	0
243	1	[836.8999999985099]	1	1	0.515828603636886	0.484171396363114	72	1	16	11	0	1	0.031657207273772	1
243	1	[556.6000000014901]	1	1	0.532476809539774	0.467523190460225	76	1	17	11	0	1	0.0649536190795491	1
243	1	[589.1999999992549]	1	1	0.534095492070173	0.465904507929826	72	1	18	11	0	1	0.068190984140347	1
243	0	[509.80000000074506]	1	0	0.489057480151022	0.510942519848977	54	0	19	11	0	1	0.021885039697955	1
243	0	[292.5]	1	1	0.502635117715327	0.497364882284672	53	1	20	11	0	1	0.00527023543065497	0
243	0	[343.19999999925494]	1	0	0.403997444337068	0.596002555662932	66	1	21	11	0	1	0.192005111325864	1
243	1	[500.5999999977648]	1	0	0.469076976009	0.530923023990999	67	0	22	11	0	1	0.061846047981999	0
243	0	[415]	1	1	0.541355381310039	0.45864461868996	72	0	23	11	0	1	0.082710762620079	0
243	0	[444.30000000074506]	1	1	0.51966654708971	0.480333452910289	50	0	24	11	0	1	0.039333094179421	0
243	1	[429.5999999977648]	1	1	0.556786637364603	0.443213362635397	81	0	25	11	0	1	0.113573274729206	1
243	0	[380.5]	2	1	0.584967950319017	0.415032049680982	38	1	1	12	1	0	0.169935900638035	1
243	0	[421.0999999977648]	2	1	0.568471383401063	0.431528616598936	29	1	2	12	1	0	0.136942766802127	1
243	0	[588.5]	2	0	0.488870627680356	0.511129372319643	45	0	3	12	1	0	0.022258744639287	0
243	1	[500.5]	2	1	0.500930467930955	0.499069532069044	50	0	4	12	1	0	0.001860935861911	0
243	1	[440.19999999925494]	2	0	0.474679736737363	0.525320263262636	37	1	5	12	1	0	0.050640526525273	1
243	1	[559.8999999985099]	2	0	0.475024872895986	0.524975127104013	40	1	6	12	1	0	0.049950254208027	1
243	1	[420.8999999985099]	2	0	0.457347487562458	0.542652512437541	38	1	7	12	1	0	0.085305024875083	1
243	0	[614.5]	2	1	0.588671036815532	0.411328963184467	29	1	8	12	1	0	0.177342073631065	1
243	0	[469.6000000014901]	2	1	0.595191604062109	0.40480839593789	24	1	9	12	1	0	0.190383208124219	1
243	0	[644.4000000022352]	2	1	0.597795878866645	0.402204121133355	24	1	10	12	1	0	0.19559175773329	1
243	0	[439.80000000074506]	2	1	0.500497770713531	0.499502229286468	50	1	11	12	1	0	0.000995541427062985	1
243	0	[383.20000000298023]	2	1	0.596197260048588	0.403802739951411	38	1	12	12	1	0	0.192394520097177	1
243	1	[286.80000000074506]	2	0	0.496660470984168	0.503339529015831	53	1	13	12	1	0	0.00667905803166302	1
243	0	[435.8999999985099]	2	1	0.583999751053247	0.416000248946752	36	1	14	12	1	0	0.167999502106495	1
243	0	[701.6000000014901]	2	1	0.514959812453431	0.485040187546568	46	1	15	12	1	0	0.029919624906863	1
243	1	[468.5]	2	0	0.449970895734911	0.550029104265088	33	1	16	12	1	0	0.100058208530177	1
243	1	[436.30000000074506]	2	0	0.442802181290249	0.55719781870975	34	1	17	12	1	0	0.114395637419501	1
243	1	[535.9000000022352]	2	0	0.464599498693473	0.535400501306526	30	1	18	12	1	0	0.0708010026130531	1
243	1	[492.3999999985099]	2	0	0.477284098280818	0.522715901719181	36	1	19	12	1	0	0.045431803438363	1
243	0	[452.6000000014901]	2	1	0.551793299804641	0.448206700195358	22	1	20	12	1	0	0.103586599609283	1
243	1	[484.4000000022352]	2	0	0.464183758432226	0.535816241567773	25	1	21	12	1	0	0.071632483135547	1
243	0	[804.7999999970198]	2	1	0.570291633306343	0.429708366693656	26	1	22	12	1	0	0.140583266612687	1
243	1	[476.6000000014901]	2	0	0.457339340702451	0.542660659297548	46	1	23	12	1	0	0.085321318595097	1
243	0	[749]	2	0	0.498003397688474	0.501996602311525	50	0	24	12	1	0	0.00399320462305097	0
243	1	[396.6000000014901]	2	0	0.447860933219721	0.552139066780278	38	1	25	12	1	0	0.104278133560557	1
