ID	choice	rt	condition_int	state	contrast_left	contrast_right	reward	trials	blocks	contrast	ecoperf
153	0	883.100000023841	2	0	0.450774494003966	0.549225505996033	0	1	1	0	1
153	1	872.200000017881	2	1	0.520624908585675	0.479375091414325	1	2	1	0	1
153	1	776.700000017881	2	1	0.505307847986947	0.494692152013052	1	3	1	0	1
153	0	636	2	0	0.48386193327932	0.516138066720679	0	4	1	0	1
153	0	571.80000001192	2	0	0.427107258153331	0.572892741846668	0	5	1	0	1
153	0	585.099999994039	2	0	0.443697009727045	0.556302990272954	0	6	1	0	1
153	0	486.90000000596	2	0	0.442493516004222	0.557506483995777	0	7	1	0	1
153	1	758	2	1	0.524624569523486	0.475375430476513	1	8	1	0	1
153	1	967.40000000596	2	1	0.510610162346437	0.489389837653562	1	9	1	0	1
153	1	642.80000001192	2	1	0.563334938495594	0.436665061504405	1	10	1	0	1
153	1	602.899999976158	2	1	0.552861254308321	0.447138745691678	1	11	1	0	1
153	1	547.599999994039	2	1	0.504506592076499	0.4954934079235	1	12	1	0	1
153	1	483.5	2	1	0.557582970822636	0.442417029177363	1	13	1	0	1
153	0	629.80000001192	2	0	0.478338652123844	0.521661347876155	0	14	1	0	1
153	0	540.40000000596	2	0	0.431586295664238	0.568413704335761	0	15	1	0	1
153	0	735.90000000596	2	0	0.496616901552865	0.503383098447134	0	16	1	0	1
153	0	526.40000000596	2	0	0.47807936109211	0.521920638907889	0	17	1	0	1
153	1	623.299999982118	2	1	0.52206245461242	0.477937545387579	1	18	1	0	1
153	1	504.80000001192	2	1	0.55585691742578	0.444143082574219	1	19	1	0	1
153	1	559.700000017881	2	1	0.540079884096834	0.459920115903165	1	20	1	0	1
153	1	482.700000017881	2	1	0.569287232729337	0.430712767270662	1	21	1	0	1
153	1	444.40000000596	2	1	0.56821175127266	0.431788248727339	1	22	1	0	1
153	0	507.5	2	0	0.462437691696103	0.537562308303896	0	23	1	0	1
153	0	412.199999988079	2	0	0.45392855827137	0.546071441728629	0	24	1	0	1
153	0	538.699999988079	2	0	0.485841746467992	0.514158253532007	0	25	1	0	1
153	1	529.599999994039	1	0	0.457269726829318	0.542730273170681	1	1	2	1	1
153	0	474	1	0	0.453831884187488	0.546168115812511	1	2	2	1	0
153	1	689.699999988079	1	0	0.454191727281082	0.545808272718917	1	3	2	1	1
153	0	886.200000017881	1	1	0.514977809741264	0.485022190258735	0	4	2	1	1
153	0	774.600000023841	1	1	0.515879711521051	0.484120288478948	0	5	2	1	1
153	0	484.599999994039	1	1	0.569948690045932	0.430051309954067	0	6	2	1	1
153	1	752.90000000596	1	1	0.512215764897708	0.487784235102291	0	7	2	1	0
153	1	480.599999994039	1	0	0.452046638664064	0.547953361335935	1	8	2	1	1
153	0	426.099999994039	1	1	0.567019239363392	0.432980760636607	0	9	2	1	1
153	0	722.40000000596	1	0	0.455428140224586	0.544571859775413	1	10	2	1	0
153	1	480.699999988079	1	0	0.448794231230419	0.55120576876958	1	11	2	1	1
153	0	280.5	1	1	0.534241854378483	0.465758145621516	0	12	2	1	1
153	0	624.599999994039	1	0	0.465153221160635	0.534846778839364	1	13	2	1	0
153	1	492.699999988079	1	0	0.469701017249029	0.53029898275097	1	14	2	1	1
153	0	268.5	1	1	0.53457403547445	0.465425964525549	0	15	2	1	1
153	1	239.699999988079	1	0	0.423527135658229	0.57647286434177	1	16	2	1	1
153	1	307.5	1	1	0.52888958191849	0.471110418081509	0	17	2	1	0
153	0	268.90000000596	1	0	0.429148972425287	0.570851027574712	1	18	2	1	0
153	0	365.099999994039	1	1	0.568008008918918	0.431991991081081	0	19	2	1	1
153	0	341.5	1	1	0.525231548113981	0.474768451886018	0	20	2	1	1
153	1	339.399999976158	1	0	0.465553141565888	0.534446858434111	1	21	2	1	1
153	0	362.099999994039	1	1	0.519911174729908	0.480088825270091	0	22	2	1	1
153	0	295.599999994039	1	0	0.447340860108369	0.55265913989163	1	23	2	1	0
153	1	280	1	1	0.506047043635491	0.493952956364508	0	24	2	1	0
153	0	568.40000000596	1	0	0.468390261815491	0.531609738184509	1	25	2	1	0
153	1	537.40000000596	3	0	0.144030400130338	0.855969599869661	1	1	3	1	1
153	1	461.90000000596	3	1	0.855485823983358	0.144514176016641	0	2	3	1	0
153	0	423.30000001192	3	1	0.852124188976024	0.147875811023975	0	3	3	1	1
153	0	533.600000023841	3	0	0.137585250698614	0.862414749301385	1	4	3	1	0
153	1	524.30000001192	3	0	0.192819513959696	0.807180486040303	1	5	3	1	1
153	1	405.699999988079	3	0	0.120060403996828	0.879939596003171	1	6	3	1	1
153	1	458	3	0	0.159223268677856	0.840776731322143	1	7	3	1	1
153	1	380.5	3	0	0.122392792657174	0.877607207342825	1	8	3	1	1
153	0	500.199999988079	3	1	0.803344206236097	0.196655793763902	0	9	3	1	1
153	1	435.599999994039	3	0	0.141894524510174	0.858105475489825	1	10	3	1	1
153	0	292.699999988079	3	0	0.137976842156684	0.862023157843315	1	11	3	1	0
153	1	636.30000001192	3	0	0.190400449090302	0.809599550909697	1	12	3	1	1
153	0	258	3	1	0.816168870160368	0.183831129839631	0	13	3	1	1
153	1	389.700000017881	3	1	0.801796177301221	0.198203822698778	0	14	3	1	0
153	0	475.200000017881	3	1	0.847918421601094	0.152081578398905	0	15	3	1	1
153	1	112.80000001192	3	1	0.839382847656895	0.160617152343104	0	16	3	1	0
153	0	169.80000001192	3	1	0.849661774401642	0.150338225598357	0	17	3	1	1
153	1	179.5	3	1	0.814087875409782	0.185912124590217	0	18	3	1	0
153	1	245.30000001192	3	1	0.833253849506136	0.166746150493863	0	19	3	1	0
153	0	202.5	3	0	0.134168380877797	0.865831619122202	1	20	3	1	0
153	1	561.600000023841	3	0	0.178907260736414	0.821092739263585	1	21	3	1	1
153	1	433.40000000596	3	0	0.165135641162229	0.83486435883777	1	22	3	1	1
153	1	405.600000023841	3	0	0.16500111330056	0.834998886699439	1	23	3	1	1
153	1	399.90000000596	3	1	0.846422096076864	0.153577903923135	0	24	3	1	0
153	0	803.200000017881	3	1	0.878013064455012	0.121986935544987	0	25	3	1	1
153	0	433.199999988079	3	1	0.874298264885404	0.125701735114595	1	1	4	0	0
153	0	454.30000001192	3	1	0.864963680308545	0.135036319691454	1	2	4	0	0
153	1	399.599999994039	3	0	0.154904912023498	0.845095087976501	0	3	4	0	0
153	1	422.90000000596	3	0	0.177608986796293	0.822391013203706	0	4	4	0	0
153	1	463.90000000596	3	0	0.186970701278969	0.81302929872103	0	5	4	0	0
153	0	295.600000023841	3	1	0.820907324400846	0.179092675599153	1	6	4	0	0
153	0	575.099999994039	3	0	0.15767778833194	0.842322211668059	0	7	4	0	1
153	0	523.90000000596	3	1	0.803539869231918	0.196460130768081	1	8	4	0	0
153	1	484.80000001192	3	1	0.847858370948789	0.15214162905121	1	9	4	0	1
153	0	614.700000017881	3	1	0.875599283114557	0.124400716885442	1	10	4	0	0
153	1	487.40000000596	3	0	0.154009380493547	0.845990619506452	0	11	4	0	0
153	1	607.199999988079	3	0	0.161547680862277	0.838452319137722	0	12	4	0	0
153	0	590.599999994039	3	0	0.168779720822283	0.831220279177716	0	13	4	0	1
153	1	377.80000001192	3	1	0.877262075611862	0.122737924388137	1	14	4	0	1
153	0	397.699999988079	3	1	0.864445061831425	0.135554938168574	1	15	4	0	0
153	1	416.40000000596	3	1	0.873672865136269	0.12632713486373	1	16	4	0	1
153	1	488.699999988079	3	0	0.130491790936116	0.869508209063883	0	17	4	0	0
153	0	484.600000023841	3	0	0.147629311545638	0.852370688454361	0	18	4	0	1
153	0	609.699999988079	3	1	0.867096124614336	0.132903875385663	1	19	4	0	0
153	1	601.100000023841	3	1	0.858041059650668	0.141958940349331	1	20	4	0	1
153	1	460.099999994039	3	0	0.158260289034948	0.841739710965051	0	21	4	0	0
153	0	632.700000017881	3	0	0.155967966944079	0.84403203305592	0	22	4	0	1
153	0	649.099999994039	3	0	0.139420807038497	0.860579192961502	0	23	4	0	1
153	0	725	3	0	0.144771672536724	0.855228327463275	0	24	4	0	1
153	0	806.80000001192	3	1	0.858421846706281	0.141578153293718	1	25	4	0	0
153	0	411.100000023841	2	1	0.55040058092438	0.449599419075619	0	1	5	1	1
153	1	568.699999988079	2	1	0.570408633561702	0.429591366438297	0	2	5	1	0
153	0	555.599999994039	2	0	0.462946260326328	0.537053739673671	1	3	5	1	0
153	0	443.699999988079	2	1	0.510496456984813	0.489503543015186	0	4	5	1	1
153	1	466.40000000596	2	0	0.424424740330401	0.575575259669598	1	5	5	1	1
153	0	414.30000001192	2	1	0.521033109908499	0.4789668900915	0	6	5	1	1
153	0	653.799999982118	2	1	0.536276924365777	0.463723075634222	0	7	5	1	1
153	0	853.299999982118	2	0	0.487142094429952	0.512857905570047	1	8	5	1	0
153	1	533	2	0	0.460785809766847	0.539214190233152	1	9	5	1	1
153	0	503.099999994039	2	1	0.547661340715922	0.452338659284077	0	10	5	1	1
153	0	580.100000023841	2	1	0.50959685343116	0.490403146568839	0	11	5	1	1
153	1	764.099999994039	2	0	0.471166793314333	0.528833206685666	1	12	5	1	1
153	0	714.200000017881	2	1	0.502291047362799	0.4977089526372	0	13	5	1	1
153	1	660.40000000596	2	0	0.470779695755616	0.529220304244383	1	14	5	1	1
153	1	732.30000001192	2	0	0.42363260920013	0.576367390799869	1	15	5	1	1
153	0	431.799999982118	2	1	0.541771747331705	0.458228252668294	0	16	5	1	1
153	1	584.599999994039	2	0	0.447522762646893	0.552477237353106	1	17	5	1	1
153	0	733.5	2	0	0.494374343763169	0.50562565623683	1	18	5	1	0
153	0	505.699999988079	2	1	0.508128878471709	0.49187112152829	0	19	5	1	1
153	1	464.699999988079	2	0	0.438119237945561	0.561880762054438	1	20	5	1	1
153	0	684.30000001192	2	0	0.455739577473964	0.544260422526035	1	21	5	1	0
153	0	474.600000023841	2	1	0.5440426328512	0.455957367148799	0	22	5	1	1
153	0	817.099999994039	2	0	0.481951105317022	0.518048894682978	1	23	5	1	0
153	0	426.599999994039	2	1	0.574431625790844	0.425568374209156	0	24	5	1	1
153	1	499.399999976158	2	0	0.425858480732337	0.574141519267662	1	25	5	1	1
153	0	526.199999988079	4	1	0.854795274647466	0.145204725352533	1	1	6	0	0
153	1	479.5	4	1	0.838322102516871	0.161677897483128	1	2	6	0	1
153	0	422.199999988079	4	0	0.191649543670661	0.808350456329338	0	3	6	0	1
153	0	576.600000023841	4	0	0.191633534239994	0.808366465760005	0	4	6	0	1
153	1	501.699999988079	4	1	0.816037599563059	0.18396240043694	1	5	6	0	1
153	0	464.40000000596	4	1	0.800588425082725	0.199411574917274	1	6	6	0	0
153	0	397	4	0	0.179763608483814	0.820236391516185	0	7	6	0	1
153	0	417.099999994039	4	1	0.853301249306595	0.146698750693405	1	8	6	0	0
153	0	957.699999988079	4	1	0.818928729639789	0.18107127036021	1	9	6	0	0
153	0	423.40000000596	4	0	0.136702448257841	0.863297551742158	0	10	6	0	1
153	1	433.699999988079	4	1	0.823271906509846	0.176728093490153	1	11	6	0	1
153	0	441.5	4	1	0.857458694310178	0.142541305689822	1	12	6	0	0
153	0	440.199999988079	4	0	0.182835123118206	0.817164876881793	0	13	6	0	1
153	1	398.699999988079	4	1	0.806281475232293	0.193718524767706	1	14	6	0	1
153	0	392.40000000596	4	0	0.137520798634818	0.862479201365181	0	15	6	0	1
153	0	574.899999976158	4	0	0.141237501501612	0.858762498498387	0	16	6	0	1
153	1	397.5	4	1	0.868286444000072	0.131713555999927	1	17	6	0	1
153	1	410.90000000596	4	1	0.826437538188246	0.173562461811753	1	18	6	0	1
153	0	420.40000000596	4	0	0.176494114207215	0.823505885792784	0	19	6	0	1
153	1	515.099999994039	4	1	0.852136671786497	0.147863328213502	1	20	6	0	1
153	0	423.099999994039	4	0	0.1518438383925	0.848156161607499	0	21	6	0	1
153	1	309.40000000596	4	0	0.190983668568892	0.809016331431107	0	22	6	0	0
153	0	368.699999988079	4	0	0.183846962844913	0.816153037155086	0	23	6	0	1
153	0	492.90000000596	4	0	0.150386670169888	0.849613329830111	0	24	6	0	1
153	0	396.5	4	0	0.161974670109682	0.838025329890317	0	25	6	0	1
153	0	609	1	0	0.473917724898285	0.526082275101714	0	1	7	0	1
153	0	457.099999994039	1	1	0.557306925669845	0.442693074330154	1	2	7	0	0
153	1	495.699999988079	1	0	0.456106132843015	0.543893867156984	0	3	7	0	0
153	0	434.199999988079	1	1	0.513439854976385	0.486560145023614	1	4	7	0	0
153	1	715.599999994039	1	0	0.474019116921054	0.525980883078945	0	5	7	0	0
153	0	445.699999988079	1	1	0.510959202229876	0.489040797770123	1	6	7	0	0
153	0	289.099999994039	1	0	0.476005947476646	0.523994052523353	0	7	7	0	1
153	0	333.399999976158	1	0	0.498454469857458	0.501545530142541	0	8	7	0	1
153	1	421.100000023841	1	0	0.45186654261499	0.548133457385009	0	9	7	0	0
153	0	468.90000000596	1	1	0.506710639430367	0.493289360569633	1	10	7	0	0
153	0	487.599999994039	1	1	0.534195834321041	0.465804165678958	1	11	7	0	0
153	1	499	1	1	0.50688582830546	0.493114171694539	1	12	7	0	1
153	1	504.90000000596	1	0	0.442061607762738	0.557938392237261	0	13	7	0	0
153	1	501.80000001192	1	0	0.451018411659515	0.548981588340484	0	14	7	0	0
153	0	429.600000023841	1	1	0.517366409982799	0.4826335900172	1	15	7	0	0
153	0	689.699999988079	1	0	0.478323201479315	0.521676798520684	0	16	7	0	1
153	0	731.599999994039	1	1	0.559748727754142	0.440251272245857	1	17	7	0	0
153	0	448.100000023841	1	1	0.55213459623117	0.447865403768829	1	18	7	0	0
153	0	602.40000000596	1	0	0.492448558740337	0.507551441259662	0	19	7	0	1
153	0	506	1	1	0.542404639970147	0.457595360029852	1	20	7	0	0
153	0	500	1	1	0.565450188557843	0.434549811442156	1	21	7	0	0
153	1	549.5	1	0	0.422698081671736	0.577301918328263	0	22	7	0	0
153	1	607.899999976158	1	0	0.479315351401129	0.52068464859887	0	23	7	0	0
153	0	539.699999988079	1	1	0.515038638317871	0.484961361682128	1	24	7	0	0
153	1	529.200000017881	1	0	0.473597104453713	0.526402895546286	0	25	7	0	0
153	0	468.100000023841	4	1	0.878108742534894	0.121891257465105	0	1	8	1	1
153	1	397.699999988079	4	0	0.194496222189839	0.80550377781016	1	2	8	1	1
153	0	335.299999982118	4	1	0.845021195691182	0.154978804308817	0	3	8	1	1
153	0	452.699999988079	4	1	0.827096597283328	0.172903402716671	0	4	8	1	1
153	1	680.299999982118	4	0	0.15751870865641	0.842481291343589	1	5	8	1	1
153	1	537.200000017881	4	1	0.828639816832647	0.171360183167352	0	6	8	1	0
153	0	395.5	4	1	0.852594342675251	0.147405657324748	0	7	8	1	1
153	0	385.5	4	1	0.806361418826525	0.193638581173474	0	8	8	1	1
153	1	391.699999988079	4	0	0.123851895896146	0.876148104103853	1	9	8	1	1
153	1	708.90000000596	4	0	0.193443383688119	0.80655661631188	1	10	8	1	1
153	1	515.40000000596	4	0	0.140117498905107	0.859882501094892	1	11	8	1	1
153	1	543.30000001192	4	1	0.803582111599781	0.196417888400218	0	12	8	1	0
153	1	432.099999994039	4	0	0.137970375515182	0.862029624484817	1	13	8	1	1
153	1	425.30000001192	4	0	0.169463583705898	0.830536416294101	1	14	8	1	1
153	0	361.80000001192	4	1	0.807928426213239	0.19207157378676	0	15	8	1	1
153	1	355.30000001192	4	0	0.140945871027796	0.859054128972203	1	16	8	1	1
153	1	487	4	0	0.174522971664731	0.825477028335268	1	17	8	1	1
153	1	408	4	0	0.154896893606648	0.845103106393351	1	18	8	1	1
153	1	405.699999988079	4	0	0.148673158663415	0.851326841336584	1	19	8	1	1
153	0	361.699999988079	4	1	0.861642741604467	0.138357258395532	0	20	8	1	1
153	0	360.30000001192	4	1	0.836628808219489	0.163371191780511	0	21	8	1	1
153	0	399	4	1	0.805328604038006	0.194671395961993	0	22	8	1	1
153	1	370.199999988079	4	0	0.132758772854093	0.867241227145906	1	23	8	1	1
153	0	360.200000017881	4	1	0.800630247438474	0.199369752561525	0	24	8	1	1
153	1	365.200000017881	4	0	0.132489004624273	0.867510995375726	1	25	8	1	1
153	1	322.90000000596	1	1	0.554332418496669	0.44566758150333	0	1	9	1	0
153	0	361.700000017881	1	0	0.497920232061324	0.502079767938675	1	2	9	1	0
153	1	602.5	1	0	0.48046531282254	0.519534687177459	1	3	9	1	1
153	1	593.200000017881	1	0	0.480789480009671	0.519210519990329	1	4	9	1	1
153	1	765.5	1	0	0.498279218432402	0.501720781567597	1	5	9	1	1
153	0	549.90000000596	1	1	0.527630494854248	0.472369505145751	0	6	9	1	1
153	1	613.699999988079	1	1	0.510948338549935	0.489051661450064	0	7	9	1	0
153	0	736.199999988079	1	0	0.488354688952396	0.511645311047603	1	8	9	1	0
153	1	572.700000017881	1	1	0.5498752345956	0.450124765404399	0	9	9	1	0
153	0	577.90000000596	1	0	0.461480233728849	0.53851976627115	1	10	9	1	0
153	1	735.699999988079	1	1	0.513823644783265	0.486176355216734	0	11	9	1	0
153	1	657.40000000596	1	1	0.570168659986621	0.429831340013378	0	12	9	1	0
153	1	626.899999976158	1	1	0.527582107371033	0.472417892628966	0	13	9	1	0
153	0	312.099999994039	1	1	0.520013761250657	0.479986238749343	0	14	9	1	1
153	1	348.40000000596	1	0	0.458539670821587	0.541460329178412	1	15	9	1	1
153	0	299	1	0	0.499886119551137	0.500113880448862	1	16	9	1	0
153	1	350.90000000596	1	0	0.488215593052366	0.511784406947633	1	17	9	1	1
153	0	333.80000001192	1	1	0.510813932696232	0.489186067303767	0	18	9	1	1
153	1	834	1	0	0.477954428257185	0.522045571742814	1	19	9	1	1
153	1	598.200000017881	1	1	0.536245252587349	0.46375474741265	0	20	9	1	0
153	1	546.5	1	1	0.564020709299538	0.435979290700461	0	21	9	1	0
153	0	503.199999988079	1	0	0.460209953767843	0.539790046232156	1	22	9	1	0
153	0	555.80000001192	1	0	0.454567691196535	0.545432308803464	1	23	9	1	0
153	1	607.80000001192	1	1	0.525898558975647	0.474101441024353	0	24	9	1	0
153	0	536.699999988079	1	0	0.48563149217254	0.514368507827459	1	25	9	1	0
153	0	417.40000000596	3	1	0.830911620918565	0.169088379081434	1	1	10	0	0
153	0	441	3	1	0.826303283629441	0.173696716370558	1	2	10	0	0
153	1	489	3	0	0.162936227308261	0.837063772691738	0	3	10	0	0
153	0	361.80000001192	3	1	0.801370037539858	0.198629962460141	1	4	10	0	0
153	0	406.299999982118	3	0	0.141433399080045	0.858566600919954	0	5	10	0	1
153	0	426.5	3	0	0.122632668338614	0.877367331661385	0	6	10	0	1
153	1	440.199999988079	3	1	0.815923981594147	0.184076018405852	1	7	10	0	1
153	1	394.80000001192	3	0	0.157967178966924	0.842032821033075	0	8	10	0	0
153	0	444.5	3	1	0.875024039581448	0.124975960418551	1	9	10	0	0
153	1	530	3	1	0.867080444088942	0.132919555911057	1	10	10	0	1
153	0	376.199999988079	3	0	0.13265723281469	0.867342767185309	0	11	10	0	1
153	0	395.100000023841	3	0	0.183058340247022	0.816941659752977	0	12	10	0	1
153	0	494.600000023841	3	0	0.182210036753047	0.817789963246952	0	13	10	0	1
153	0	503	3	1	0.844758534501473	0.155241465498527	1	14	10	0	0
153	0	435.30000001192	3	0	0.169892519398063	0.830107480601936	0	15	10	0	1
153	0	391	3	1	0.85220299450935	0.147797005490649	1	16	10	0	0
153	1	398.599999994039	3	0	0.141550354822149	0.85844964517785	0	17	10	0	0
153	1	534.80000001192	3	0	0.169649939429358	0.830350060570641	0	18	10	0	0
153	0	375.699999988079	3	1	0.826061797493971	0.173938202506028	1	19	10	0	0
153	0	523.30000001192	3	0	0.196497518766888	0.803502481233111	0	20	10	0	1
153	0	651.90000000596	3	1	0.820169667271798	0.179830332728201	1	21	10	0	0
153	0	565.30000001192	3	1	0.81575735591993	0.184242644080069	1	22	10	0	0
153	1	555.699999988079	3	1	0.811649764464503	0.188350235535496	1	23	10	0	1
153	0	309.599999994039	3	1	0.876195839828685	0.123804160171314	1	24	10	0	0
153	0	237.299999982118	3	0	0.176237987480507	0.823762012519492	0	25	10	0	1
153	1	460.5	2	0	0.487702963234589	0.51229703676541	1	1	11	1	1
153	0	464.699999988079	2	0	0.478075981754368	0.521924018245631	1	2	11	1	0
153	0	475.099999994039	2	0	0.441892167609146	0.558107832390853	1	3	11	1	0
153	1	728.099999994039	2	0	0.498532228640423	0.501467771359577	1	4	11	1	1
153	1	630.40000000596	2	1	0.570582584016749	0.42941741598325	0	5	11	1	0
153	0	725.80000001192	2	1	0.50435237018357	0.495647629816429	0	6	11	1	1
153	1	506	2	1	0.54896450462285	0.45103549537715	0	7	11	1	0
153	1	649.5	2	0	0.484883397776137	0.515116602223863	1	8	11	1	1
153	0	461	2	1	0.528976564992691	0.471023435007308	0	9	11	1	1
153	1	544.90000000596	2	1	0.501811338321194	0.498188661678805	0	10	11	1	0
153	0	958.30000001192	2	0	0.474676170033176	0.525323829966823	1	11	11	1	0
153	0	320.199999988079	2	1	0.541168637660149	0.45883136233985	0	12	11	1	1
153	0	385.80000001192	2	1	0.527045549831367	0.472954450168632	0	13	11	1	1
153	0	346.90000000596	2	1	0.50654721981933	0.493452780180669	0	14	11	1	1
153	0	327.599999994039	2	0	0.476608047163701	0.523391952836298	1	15	11	1	0
153	0	358.40000000596	2	0	0.481629308643877	0.518370691356122	1	16	11	1	0
153	1	277.199999988079	2	1	0.520010530356583	0.479989469643416	0	17	11	1	0
153	0	342	2	0	0.481812393700665	0.518187606299335	1	18	11	1	0
153	1	325.40000000596	2	0	0.443032901750535	0.556967098249464	1	19	11	1	1
153	1	324.5	2	1	0.550640670599629	0.44935932940037	0	20	11	1	0
153	0	266.30000001192	2	1	0.57165440615083	0.428345593849169	0	21	11	1	1
153	0	303.899999976158	2	0	0.48763541814541	0.512364581854589	1	22	11	1	0
153	1	267.40000000596	2	0	0.46232263305385	0.537677366946149	1	23	11	1	1
153	1	147.30000001192	2	1	0.575660740625638	0.424339259374362	0	24	11	1	0
153	0	280.100000023841	2	1	0.552219353174898	0.447780646825101	0	25	11	1	1
153	0	591.40000000596	2	1	0.510049647633047	0.489950352366952	1	1	12	0	0
153	1	268.200000017881	2	1	0.57361796221887	0.426382037781129	1	2	12	0	1
153	0	300.30000001192	2	0	0.455511843938197	0.544488156061803	0	3	12	0	1
153	0	314.5	2	0	0.469911461082473	0.530088538917526	0	4	12	0	1
153	1	260.100000023841	2	1	0.540956129323895	0.459043870676104	1	5	12	0	1
153	1	794.40000000596	2	0	0.442245777960142	0.557754222039857	0	6	12	0	0
153	0	782.799999982118	2	0	0.455378744763385	0.544621255236614	0	7	12	0	1
153	1	456.299999982118	2	0	0.43537734550079	0.564622654499209	0	8	12	0	0
153	1	53.699999988079	2	1	0.52884627168593	0.471153728314069	1	9	12	0	1
153	0	292.90000000596	2	1	0.545271417992419	0.45472858200758	1	10	12	0	0
153	1	154.80000001192	2	1	0.510082682848929	0.48991731715107	1	11	12	0	1
153	1	262.30000001192	2	0	0.454734162082242	0.545265837917757	0	12	12	0	0
153	1	237.40000000596	2	0	0.485534721569228	0.514465278430771	0	13	12	0	0
153	0	125.200000017881	2	0	0.457209775802085	0.542790224197914	0	14	12	0	1
153	0	175.90000000596	2	1	0.563241752869764	0.436758247130235	1	15	12	0	0
153	1	365.40000000596	2	0	0.451800955256705	0.548199044743295	0	16	12	0	0
153	0	236	2	1	0.568106007219296	0.431893992780703	1	17	12	0	0
153	0	298.299999982118	2	1	0.537424139211933	0.462575860788066	1	18	12	0	0
153	0	458.80000001192	2	1	0.56624348786489	0.433756512135109	1	19	12	0	0
153	0	398	2	0	0.455715645798352	0.544284354201647	0	20	12	0	1
153	0	597.700000017881	2	1	0.563490350557158	0.436509649442842	1	21	12	0	0
153	0	397.5	2	0	0.449992262344967	0.550007737655032	0	22	12	0	1
153	0	451.5	2	0	0.426998533929247	0.573001466070752	0	23	12	0	1
153	0	632.40000000596	2	1	0.539057571493218	0.460942428506781	1	24	12	0	0
153	0	423.600000023841	2	1	0.575567966524935	0.424432033475064	1	25	12	0	0
153	0	876.90000000596	1	0	0.460018940225733	0.539981059774266	0	1	13	0	1
153	1	667.30000001192	1	0	0.499671892971305	0.500328107028694	0	2	13	0	0
153	0	350.099999994039	1	0	0.46426585150331	0.535734148496689	0	3	13	0	1
153	0	359.5	1	0	0.488464113781278	0.511535886218721	0	4	13	0	1
153	0	732	1	0	0.463945864218258	0.536054135781741	0	5	13	0	1
153	1	424.799999982118	1	1	0.549899957482065	0.450100042517934	1	6	13	0	1
153	0	400	1	0	0.460055003879169	0.53994499612083	0	7	13	0	1
153	1	377.599999994039	1	0	0.474382473883026	0.525617526116973	0	8	13	0	0
153	0	457.90000000596	1	0	0.499713443811846	0.500286556188154	0	9	13	0	1
153	1	412.699999988079	1	1	0.521929831628527	0.478070168371472	1	10	13	0	1
153	0	550.5	1	1	0.502005116914424	0.497994883085575	1	11	13	0	0
153	1	494.200000017881	1	0	0.471784829122551	0.528215170877448	0	12	13	0	0
153	1	461.80000001192	1	1	0.547725384063708	0.452274615936291	1	13	13	0	1
153	0	337.899999976158	1	1	0.527421526115092	0.472578473884907	1	14	13	0	0
153	1	406.90000000596	1	1	0.570594970542018	0.429405029457981	1	15	13	0	1
153	0	315.599999994039	1	1	0.569548334212371	0.430451665787629	1	16	13	0	0
153	1	343.80000001192	1	1	0.547175423264941	0.452824576735058	1	17	13	0	1
153	1	434.90000000596	1	1	0.570546633368947	0.429453366631052	1	18	13	0	1
153	1	632.699999988079	1	1	0.550971849722235	0.449028150277764	1	19	13	0	1
153	0	508	1	0	0.462387588210425	0.537612411789574	0	20	13	0	1
153	0	513.199999988079	1	1	0.508096439739348	0.491903560260651	1	21	13	0	0
153	1	187.699999988079	1	0	0.434400936974854	0.565599063025145	0	22	13	0	0
153	0	622.200000017881	1	1	0.5467955172905	0.453204482709499	1	23	13	0	0
153	0	479.099999994039	1	0	0.498448135876564	0.501551864123435	0	24	13	0	1
153	1	750.40000000596	1	1	0.514922134930723	0.485077865069276	1	25	13	0	1
153	0	537.40000000596	4	0	0.196863673624854	0.803136326375145	0	1	14	0	1
153	1	395.5	4	1	0.836910016413031	0.163089983586968	1	2	14	0	1
153	1	393.5	4	1	0.838902854904209	0.16109714509579	1	3	14	0	1
153	0	437	4	0	0.166349035434066	0.833650964565933	0	4	14	0	1
153	1	346.80000001192	4	1	0.811541326521367	0.188458673478632	1	5	14	0	1
153	1	561.5	4	1	0.812711559238751	0.187288440761248	1	6	14	0	1
153	0	427.30000001192	4	0	0.171432739825448	0.828567260174551	0	7	14	0	1
153	0	350.80000001192	4	1	0.801567178116447	0.198432821883553	1	8	14	0	0
153	1	324.5	4	0	0.184649185518307	0.815350814481692	0	9	14	0	0
153	1	384.399999976158	4	1	0.829716459101267	0.170283540898732	1	10	14	0	1
153	1	438	4	1	0.827551134000322	0.172448865999677	1	11	14	0	1
153	1	495.199999988079	4	1	0.809430476169097	0.190569523830902	1	12	14	0	1
153	0	381	4	0	0.158405229929068	0.841594770070931	0	13	14	0	1
153	0	442.199999988079	4	0	0.175952642849401	0.824047357150598	0	14	14	0	1
153	0	441	4	0	0.149253888892323	0.850746111107677	0	15	14	0	1
153	0	693.5	4	0	0.140353218901656	0.859646781098343	0	16	14	0	1
153	0	368.699999988079	4	0	0.181527260257679	0.81847273974232	0	17	14	0	1
153	1	593.299999982118	4	1	0.877887482531271	0.122112517468728	1	18	14	0	1
153	0	350	4	0	0.169102712906698	0.830897287093301	0	19	14	0	1
153	1	398.80000001192	4	1	0.841447008875664	0.158552991124335	1	20	14	0	1
153	0	383	4	0	0.159315818708579	0.84068418129142	0	21	14	0	1
153	0	433.699999988079	4	0	0.136041835052256	0.863958164947743	0	22	14	0	1
153	1	456	4	1	0.833051603081305	0.166948396918694	1	23	14	0	1
153	1	495.40000000596	4	1	0.810258621956067	0.189741378043932	1	24	14	0	1
153	0	447.199999988079	4	0	0.18750659529429	0.81249340470571	0	25	14	0	1
153	0	433.200000017881	4	0	0.17432830546797	0.825671694532029	1	1	15	1	0
153	1	359.5	4	0	0.141475934310968	0.858524065689031	1	2	15	1	1
153	0	355	4	1	0.805310191870488	0.194689808129511	0	3	15	1	1
153	1	322	4	0	0.153485128856282	0.846514871143717	1	4	15	1	1
153	0	356.099999994039	4	1	0.855122650106984	0.144877349893015	0	5	15	1	1
153	0	500.799999982118	4	1	0.818720082068528	0.181279917931471	0	6	15	1	1
153	0	417.099999994039	4	1	0.845805655459516	0.154194344540483	0	7	15	1	1
153	0	515.40000000596	4	0	0.144781044953337	0.855218955046662	1	8	15	1	0
153	1	395.80000001192	4	0	0.161909698090074	0.838090301909925	1	9	15	1	1
153	0	440.30000001192	4	1	0.816769962198064	0.183230037801935	0	10	15	1	1
153	1	464.799999982118	4	0	0.130105405594749	0.86989459440525	1	11	15	1	1
153	0	293	4	1	0.837358878942289	0.16264112105771	0	12	15	1	1
153	0	617.699999988079	4	1	0.86092043478625	0.139079565213749	0	13	15	1	1
153	1	516.799999982118	4	0	0.169927007359519	0.83007299264048	1	14	15	1	1
153	0	372	4	1	0.841303356629456	0.158696643370543	0	15	15	1	1
153	1	310.5	4	0	0.183353975464724	0.816646024535275	1	16	15	1	1
153	1	488.099999994039	4	0	0.157312452568201	0.842687547431798	1	17	15	1	1
153	0	400.40000000596	4	1	0.871255877980912	0.128744122019087	0	18	15	1	1
153	1	485.40000000596	4	0	0.159972314109848	0.840027685890151	1	19	15	1	1
153	0	406.199999988079	4	1	0.815294586834006	0.184705413165993	0	20	15	1	1
153	1	434	4	0	0.179910010720834	0.820089989279166	1	21	15	1	1
153	0	309.199999988079	4	1	0.846585579899507	0.153414420100492	0	22	15	1	1
153	0	449.40000000596	4	1	0.826788744893554	0.173211255106445	0	23	15	1	1
153	1	405.699999988079	4	0	0.120577094608906	0.879422905391093	1	24	15	1	1
153	1	616.90000000596	4	0	0.184621912042489	0.81537808795751	1	25	15	1	1
153	0	673.199999988079	3	1	0.823497454427498	0.176502545572501	0	1	16	1	1
153	0	402.90000000596	3	1	0.816280559322898	0.183719440677101	0	2	16	1	1
153	1	389.899999976158	3	0	0.17995025400059	0.820049745999409	1	3	16	1	1
153	1	385.599999994039	3	0	0.122517733713751	0.877482266286248	1	4	16	1	1
153	0	321.600000023841	3	1	0.831281784317094	0.168718215682905	0	5	16	1	1
153	0	326.90000000596	3	0	0.15127110511151	0.848728894888489	1	6	16	1	0
153	0	294.199999988079	3	0	0.132352716011825	0.867647283988174	1	7	16	1	0
153	0	474.90000000596	3	1	0.807295335114234	0.192704664885765	0	8	16	1	1
153	0	389.099999994039	3	1	0.874761360879578	0.125238639120421	0	9	16	1	1
153	0	390.599999994039	3	1	0.847468027454072	0.152531972545927	0	10	16	1	1
153	0	421.599999994039	3	0	0.142701656240424	0.857298343759575	1	11	16	1	0
153	1	516	3	0	0.162515958223594	0.837484041776405	1	12	16	1	1
153	0	601.40000000596	3	0	0.183530941452598	0.816469058547401	1	13	16	1	0
153	0	341.099999994039	3	1	0.87814930652535	0.121850693474649	0	14	16	1	1
153	1	308.40000000596	3	0	0.174221073272434	0.825778926727565	1	15	16	1	1
153	1	483.90000000596	3	1	0.847444760808808	0.152555239191191	0	16	16	1	0
153	0	325.699999988079	3	1	0.862384033126833	0.137615966873166	0	17	16	1	1
153	0	513	3	1	0.865911002255763	0.134088997744236	0	18	16	1	1
153	0	438.600000023841	3	1	0.872755994707556	0.127244005292443	0	19	16	1	1
153	1	434.80000001192	3	0	0.180102596075726	0.819897403924273	1	20	16	1	1
153	0	318.30000001192	3	1	0.865292472556792	0.134707527443207	0	21	16	1	1
153	1	365.099999994039	3	0	0.137016793743202	0.862983206256797	1	22	16	1	1
153	0	501.5	3	1	0.833780169878662	0.166219830121338	0	23	16	1	1
153	0	888.799999982118	3	0	0.122304898737633	0.877695101262367	1	24	16	1	0
153	0	401.40000000596	3	0	0.144108267698	0.855891732301999	1	25	16	1	0
