ID	choice	rt	condition_int	state	contrast_left	contrast_right	reward	trials	blocks	contrast	ecoperf
31	1	438	4	1	0.809843848762295	0.190156151237705	1	1	1	0	1
31	0	342.90000000596	4	0	0.180518661794897	0.819481338205102	0	2	1	0	1
31	0	448.40000000596	4	0	0.125728996265339	0.87427100373466	0	3	1	0	1
31	0	347.199999988079	4	0	0.132210311477404	0.867789688522595	0	4	1	0	1
31	1	377.099999994039	4	1	0.800865604561203	0.199134395438796	1	5	1	0	1
31	0	380.90000000596	4	0	0.179034219728702	0.820965780271297	0	6	1	0	1
31	1	363.099999994039	4	1	0.818600764485335	0.181399235514664	1	7	1	0	1
31	1	391.199999988079	4	1	0.801279769072613	0.198720230927386	1	8	1	0	1
31	1	387.5	4	1	0.825409674004527	0.174590325995472	1	9	1	0	1
31	1	361.90000000596	4	1	0.807614644059536	0.192385355940463	1	10	1	0	1
31	0	322.5	4	0	0.191800514937012	0.808199485062987	0	11	1	0	1
31	0	402.599999994039	4	0	0.143470666055257	0.856529333944742	0	12	1	0	1
31	0	330.700000017881	4	0	0.123871284824979	0.87612871517502	0	13	1	0	1
31	0	308.199999988079	4	0	0.198395106704714	0.801604893295285	0	14	1	0	1
31	0	339.699999988079	4	1	0.842642903283043	0.157357096716956	1	15	1	0	0
31	1	329.599999994039	4	1	0.859024437005972	0.140975562994027	1	16	1	0	1
31	0	347.199999988079	4	0	0.145727581037474	0.854272418962525	0	17	1	0	1
31	1	311.199999988079	4	1	0.861568938929399	0.1384310610706	1	18	1	0	1
31	0	379.099999994039	4	0	0.187250168337825	0.812749831662174	0	19	1	0	1
31	1	346.199999988079	4	1	0.824931901618574	0.175068098381425	1	20	1	0	1
31	0	532.90000000596	4	0	0.12587800540793	0.874121994592069	0	21	1	0	1
31	0	357.5	4	0	0.192670561878022	0.807329438121977	0	22	1	0	1
31	1	341.100000023841	4	1	0.858796866178001	0.141203133821998	1	23	1	0	1
31	1	370.699999988079	4	1	0.860819536082368	0.139180463917631	1	24	1	0	1
31	0	360.600000023841	4	0	0.197019458145269	0.80298054185473	0	25	1	0	1
31	0	585.100000023841	2	1	0.558776051432297	0.441223948567702	1	1	2	0	0
31	1	334.5	2	1	0.567289065514606	0.432710934485393	1	2	2	0	1
31	1	395.80000001192	2	0	0.497311092471271	0.502688907528728	0	3	2	0	0
31	0	750.40000000596	2	1	0.531055863028001	0.468944136971998	1	4	2	0	0
31	0	534.199999988079	2	0	0.468679428687857	0.531320571312142	0	5	2	0	1
31	1	568.90000000596	2	1	0.571550131899332	0.428449868100667	1	6	2	0	1
31	0	380.600000023841	2	0	0.427004837146021	0.572995162853978	0	7	2	0	1
31	0	407.200000017881	2	0	0.430445488242409	0.569554511757591	0	8	2	0	1
31	0	387.699999988079	2	0	0.435490799195344	0.564509200804655	0	9	2	0	1
31	0	593.30000001192	2	0	0.479162222656791	0.520837777343208	0	10	2	0	1
31	0	576.90000000596	2	1	0.517465102491049	0.48253489750895	1	11	2	0	0
31	0	501.599999994039	2	0	0.490687831957169	0.50931216804283	0	12	2	0	1
31	1	501.90000000596	2	1	0.579475566577471	0.420524433422528	1	13	2	0	1
31	0	362.200000017881	2	1	0.508309965393065	0.491690034606934	1	14	2	0	0
31	0	477.600000023841	2	0	0.468013167283782	0.531986832716217	0	15	2	0	1
31	1	594.600000023841	2	1	0.518167865017999	0.481832134982	1	16	2	0	1
31	0	530.699999988079	2	1	0.547045976707485	0.452954023292514	1	17	2	0	0
31	0	558.099999994039	2	0	0.445794401099791	0.554205598900208	0	18	2	0	1
31	0	521.200000017881	2	0	0.436048507368591	0.563951492631408	0	19	2	0	1
31	1	685.099999994039	2	1	0.529239790300074	0.470760209699925	1	20	2	0	1
31	0	625.599999994039	2	1	0.519480918072677	0.480519081927322	1	21	2	0	0
31	0	548.299999982118	2	0	0.454856386643015	0.545143613356984	0	22	2	0	1
31	0	448.200000017881	2	0	0.490353838838261	0.509646161161738	0	23	2	0	1
31	1	583.5	2	1	0.563663361261537	0.436336638738462	1	24	2	0	1
31	0	374.90000000596	2	0	0.458706849264622	0.541293150735377	0	25	2	0	1
31	0	403.600000023841	1	0	0.438555874363386	0.561444125636613	1	1	3	1	0
31	0	470.200000017881	1	0	0.466811029410593	0.533188970589406	1	2	3	1	0
31	0	404	1	1	0.532787921661644	0.467212078338355	0	3	3	1	1
31	0	436.699999988079	1	0	0.455654912561982	0.544345087438017	1	4	3	1	0
31	0	351.099999994039	1	1	0.503423672319621	0.496576327680378	0	5	3	1	1
31	0	365.5	1	0	0.466243371184464	0.533756628815535	1	6	3	1	0
31	0	317.199999988079	1	0	0.437377373523482	0.562622626476517	1	7	3	1	0
31	1	254.700000017881	1	1	0.562515787349206	0.437484212650793	0	8	3	1	0
31	0	445	1	1	0.526944303492467	0.473055696507532	0	9	3	1	1
31	0	382	1	0	0.46309348316929	0.53690651683071	1	10	3	1	0
31	0	393.099999994039	1	1	0.514110431185949	0.48588956881405	0	11	3	1	1
31	0	477.200000017881	1	0	0.445574845861386	0.554425154138613	1	12	3	1	0
31	0	448.90000000596	1	1	0.532035218270441	0.467964781729558	0	13	3	1	1
31	1	625.399999976158	1	1	0.546871048311214	0.453128951688785	0	14	3	1	0
31	0	428.199999988079	1	0	0.453635545703259	0.54636445429674	1	15	3	1	0
31	1	394.399999976158	1	1	0.569055329659696	0.430944670340304	0	16	3	1	0
31	0	291.40000000596	1	1	0.526990202703469	0.47300979729653	0	17	3	1	1
31	0	453.40000000596	1	0	0.428718839334653	0.571281160665346	1	18	3	1	0
31	0	460.80000001192	1	0	0.493547493475795	0.506452506524204	1	19	3	1	0
31	0	656.700000017881	1	0	0.457564101537078	0.542435898462922	1	20	3	1	0
31	1	491.100000023841	1	1	0.567543938580956	0.432456061419043	0	21	3	1	0
31	1	463.399999976158	1	1	0.573141529936496	0.426858470063503	0	22	3	1	0
31	1	406.399999976158	1	1	0.562882842834798	0.437117157165201	0	23	3	1	0
31	0	108.80000001192	1	0	0.422541581805283	0.577458418194716	1	24	3	1	0
31	0	491.799999982118	1	1	0.544603579626518	0.455396420373481	0	25	3	1	1
31	1	875.30000001192	3	1	0.810437405334888	0.189562594665112	0	1	4	1	0
31	0	614.700000017881	3	1	0.86089974620134	0.139100253798659	0	2	4	1	1
31	1	419.599999994039	3	0	0.169210753403351	0.830789246596648	1	3	4	1	1
31	0	309.099999994039	3	1	0.825686760457878	0.174313239542121	0	4	4	1	1
31	0	384.899999976158	3	0	0.149648585977785	0.850351414022214	1	5	4	1	0
31	0	453.199999988079	3	0	0.121330976805306	0.878669023194693	1	6	4	1	0
31	1	391.700000017881	3	0	0.185518126898982	0.814481873101017	1	7	4	1	1
31	1	309.199999988079	3	0	0.187955551617706	0.812044448382294	1	8	4	1	1
31	1	343.80000001192	3	0	0.12425916692189	0.875740833078109	1	9	4	1	1
31	0	362.40000000596	3	0	0.138025054241639	0.86197494575836	1	10	4	1	0
31	0	613.80000001192	3	1	0.832054055430594	0.167945944569405	0	11	4	1	1
31	0	373.700000017881	3	1	0.851143321863494	0.148856678136505	0	12	4	1	1
31	0	355.40000000596	3	1	0.843429320445736	0.156570679554263	0	13	4	1	1
31	1	373.80000001192	3	0	0.176032787342526	0.823967212657473	1	14	4	1	1
31	1	389.80000001192	3	0	0.133568564163871	0.866431435836128	1	15	4	1	1
31	0	366.599999994039	3	1	0.806318021270365	0.193681978729634	0	16	4	1	1
31	0	328.5	3	1	0.843887402533505	0.156112597466494	0	17	4	1	1
31	1	692.80000001192	3	0	0.158274725759091	0.841725274240908	1	18	4	1	1
31	0	304.299999982118	3	1	0.820325028561065	0.179674971438934	0	19	4	1	1
31	0	384.80000001192	3	1	0.835814192664405	0.164185807335594	0	20	4	1	1
31	1	398.399999976158	3	1	0.832831910648274	0.167168089351725	0	21	4	1	0
31	0	388	3	0	0.122017037283919	0.87798296271608	1	22	4	1	0
31	0	340.200000017881	3	1	0.823634903613403	0.176365096386596	0	23	4	1	1
31	0	374.100000023841	3	1	0.819011310972835	0.180988689027165	0	24	4	1	1
31	1	269.40000000596	3	0	0.188099753208923	0.811900246791076	1	25	4	1	1
31	0	716.799999982118	2	0	0.453188891597063	0.546811108402937	1	1	5	1	0
31	1	757.5	2	0	0.460996124445099	0.5390038755549	1	2	5	1	1
31	0	631.90000000596	2	0	0.490175505040081	0.509824494959919	1	3	5	1	0
31	1	450.199999988079	2	0	0.420351346828994	0.579648653171005	1	4	5	1	1
31	0	439	2	1	0.520711790466374	0.479288209533626	0	5	5	1	1
31	1	414.5	2	1	0.503316157228029	0.49668384277197	0	6	5	1	0
31	0	399.299999982118	2	1	0.543810231868839	0.45618976813116	0	7	5	1	1
31	0	502.799999982118	2	1	0.53643248506719	0.463567514932809	0	8	5	1	1
31	1	398.299999982118	2	0	0.479471676607411	0.520528323392588	1	9	5	1	1
31	0	420.40000000596	2	1	0.500591829242035	0.499408170757964	0	10	5	1	1
31	1	357.80000001192	2	1	0.552958422558761	0.447041577441238	0	11	5	1	0
31	1	552	2	0	0.443400610776558	0.556599389223441	1	12	5	1	1
31	0	372.599999994039	2	1	0.572324476424552	0.427675523575447	0	13	5	1	1
31	0	442.80000001192	2	1	0.561633829201424	0.438366170798575	0	14	5	1	1
31	0	467.90000000596	2	1	0.529135384538966	0.470864615461034	0	15	5	1	1
31	1	385.80000001192	2	0	0.470768558772404	0.529231441227595	1	16	5	1	1
31	1	681.199999988079	2	0	0.485774928823304	0.514225071176695	1	17	5	1	1
31	1	559.30000001192	2	0	0.451887064800622	0.548112935199377	1	18	5	1	1
31	0	387.099999994039	2	1	0.560247587737645	0.439752412262354	0	19	5	1	1
31	1	510.90000000596	2	0	0.468372757287228	0.531627242712771	1	20	5	1	1
31	1	873.40000000596	2	0	0.476653556201289	0.52334644379871	1	21	5	1	1
31	1	711.599999994039	2	0	0.482727955849083	0.517272044150916	1	22	5	1	1
31	0	617.699999988079	2	1	0.530806733347265	0.469193266652734	0	23	5	1	1
31	0	614.899999976158	2	1	0.541602575147824	0.458397424852175	0	24	5	1	1
31	0	455	2	1	0.518429964680338	0.481570035319662	0	25	5	1	1
31	1	427.700000017881	3	0	0.172303531890226	0.827696468109773	0	1	6	0	0
31	1	464.40000000596	3	1	0.846449643193244	0.153550356806755	1	2	6	0	1
31	0	392.40000000596	3	1	0.836587517518914	0.163412482481085	1	3	6	0	0
31	0	657	3	0	0.199371234040504	0.800628765959495	0	4	6	0	1
31	0	391.099999994039	3	0	0.189902022752128	0.810097977247871	0	5	6	0	1
31	1	390.40000000596	3	1	0.813809004365913	0.186190995634086	1	6	6	0	1
31	1	510.399999976158	3	1	0.808315095045278	0.191684904954721	1	7	6	0	1
31	0	467.200000017881	3	1	0.86470870948319	0.135291290516809	1	8	6	0	0
31	0	430.899999976158	3	0	0.148619170714864	0.851380829285135	0	9	6	0	1
31	0	480	3	0	0.181098359488823	0.818901640511176	0	10	6	0	1
31	0	447.30000001192	3	0	0.197061294859707	0.802938705140292	0	11	6	0	1
31	0	400.100000023841	3	0	0.148566469492346	0.851433530507653	0	12	6	0	1
31	0	300.30000001192	3	1	0.870300906189939	0.12969909381006	1	13	6	0	0
31	1	629	3	0	0.15592261111083	0.844077388889169	0	14	6	0	0
31	0	401.40000000596	3	0	0.176953593651618	0.823046406348381	0	15	6	0	1
31	0	437.299999982118	3	0	0.184195528398154	0.815804471601845	0	16	6	0	1
31	0	570.30000001192	3	1	0.806046547012802	0.193953452987197	1	17	6	0	0
31	0	431.700000017881	3	0	0.167591374162454	0.832408625837545	0	18	6	0	1
31	1	368.899999976158	3	1	0.848080778821612	0.151919221178387	1	19	6	0	1
31	0	449.40000000596	3	0	0.195365466502625	0.804634533497374	0	20	6	0	1
31	1	359	3	1	0.855629194786887	0.144370805213112	1	21	6	0	1
31	0	457.799999982118	3	1	0.802227451951561	0.197772548048438	1	22	6	0	0
31	1	436	3	1	0.869045232900292	0.130954767099707	1	23	6	0	1
31	0	465.5	3	1	0.817556256204711	0.182443743795288	1	24	6	0	0
31	1	644.099999994039	3	1	0.814147260546862	0.185852739453137	1	25	6	0	1
31	0	587.80000001192	4	1	0.849806125943506	0.150193874056493	0	1	7	1	1
31	0	343.199999988079	4	1	0.859953132942094	0.140046867057905	0	2	7	1	1
31	1	357.5	4	0	0.197488430414543	0.802511569585456	1	3	7	1	1
31	1	375.699999988079	4	0	0.158600828188204	0.841399171811795	1	4	7	1	1
31	1	371	4	0	0.170957757807859	0.82904224219214	1	5	7	1	1
31	1	359.299999982118	4	0	0.160580886353112	0.839419113646888	1	6	7	1	1
31	1	365	4	0	0.170438189643556	0.829561810356443	1	7	7	1	1
31	0	425.40000000596	4	1	0.875886934489776	0.124113065510223	0	8	7	1	1
31	0	424.100000023841	4	1	0.82408784980486	0.175912150195139	0	9	7	1	1
31	1	331.299999982118	4	0	0.139004111404376	0.860995888595623	1	10	7	1	1
31	1	362.199999988079	4	0	0.192265382669153	0.807734617330846	1	11	7	1	1
31	0	329.30000001192	4	1	0.843688290720306	0.156311709279693	0	12	7	1	1
31	1	307.200000017881	4	0	0.175730522820518	0.824269477179482	1	13	7	1	1
31	0	283.5	4	1	0.86308677615535	0.136913223844649	0	14	7	1	1
31	1	368.5	4	0	0.195889068001224	0.804110931998775	1	15	7	1	1
31	1	363.399999976158	4	0	0.171154170950411	0.828845829049588	1	16	7	1	1
31	0	316.80000001192	4	1	0.833566181436244	0.166433818563755	0	17	7	1	1
31	1	354.90000000596	4	0	0.188880768593417	0.811119231406582	1	18	7	1	1
31	0	385	4	1	0.86195030634286	0.138049693657139	0	19	7	1	1
31	0	479.599999994039	4	1	0.864491804392484	0.135508195607515	0	20	7	1	1
31	0	506.80000001192	4	1	0.875025863366784	0.124974136633215	0	21	7	1	1
31	0	507	4	1	0.817395534883391	0.182604465116608	0	22	7	1	1
31	0	377.899999976158	4	1	0.860545835718516	0.139454164281483	0	23	7	1	1
31	0	382.90000000596	4	1	0.806573990699303	0.193426009300696	0	24	7	1	1
31	1	314.90000000596	4	0	0.150246216822355	0.849753783177644	1	25	7	1	1
31	0	656	1	0	0.478281458529349	0.52171854147065	0	1	8	0	1
31	1	858.299999982118	1	1	0.532560433593509	0.46743956640649	1	2	8	0	1
31	0	722.699999988079	1	0	0.458872238950262	0.541127761049737	0	3	8	0	1
31	1	953.399999976158	1	1	0.527636645295765	0.472363354704234	1	4	8	0	1
31	0	566	1	1	0.51252282187713	0.487477178122869	1	5	8	0	0
31	0	460.099999994039	1	0	0.450190020237178	0.549809979762821	0	6	8	0	1
31	1	779.80000001192	1	0	0.489169555525085	0.510830444474914	0	7	8	0	0
31	0	675.100000023841	1	1	0.528208574385573	0.471791425614426	1	8	8	0	0
31	0	471	1	0	0.456576246737666	0.543423753262333	0	9	8	0	1
31	1	519.199999988079	1	1	0.569768790897092	0.430231209102907	1	10	8	0	1
31	0	350.80000001192	1	0	0.430562520456342	0.569437479543657	0	11	8	0	1
31	0	527.80000001192	1	0	0.453248554055325	0.546751445944674	0	12	8	0	1
31	0	600.200000017881	1	1	0.508787263323214	0.491212736676786	1	13	8	0	0
31	0	461.099999994039	1	0	0.434109796112927	0.565890203887072	0	14	8	0	1
31	0	453.099999994039	1	0	0.491934994125188	0.508065005874811	0	15	8	0	1
31	0	458.799999982118	1	0	0.423392341204016	0.576607658795983	0	16	8	0	1
31	0	444.399999976158	1	1	0.549907373911453	0.450092626088546	1	17	8	0	0
31	1	490.40000000596	1	1	0.572211422416847	0.427788577583152	1	18	8	0	1
31	0	366.700000017881	1	0	0.429928678549208	0.570071321450791	0	19	8	0	1
31	1	445.5	1	1	0.57568565409278	0.424314345907219	1	20	8	0	1
31	0	436.199999988079	1	0	0.43409398797632	0.565906012023679	0	21	8	0	1
31	1	434.299999982118	1	1	0.574421646038264	0.425578353961735	1	22	8	0	1
31	1	534.200000017881	1	1	0.543864396191517	0.456135603808482	1	23	8	0	1
31	0	425.90000000596	1	0	0.490133929330335	0.509866070669664	0	24	8	0	1
31	1	235.799999982118	1	1	0.57493084259493	0.425069157405069	1	25	8	0	1
31	0	410.40000000596	3	0	0.149936554830728	0.850063445169271	1	1	9	1	0
31	1	380.40000000596	3	1	0.873083418058851	0.126916581941148	0	2	9	1	0
31	1	481.099999994039	3	1	0.853238736253205	0.146761263746794	0	3	9	1	0
31	0	523	3	0	0.175999488260443	0.824000511739556	1	4	9	1	0
31	0	403	3	1	0.822645056884677	0.177354943115322	0	5	9	1	1
31	0	443.699999988079	3	1	0.849986413891993	0.150013586108006	0	6	9	1	1
31	0	311.5	3	1	0.851078009193513	0.148921990806486	0	7	9	1	1
31	0	306.899999976158	3	1	0.834607699596305	0.165392300403694	0	8	9	1	1
31	1	307.899999976158	3	0	0.14000261835055	0.859997381649449	1	9	9	1	1
31	1	529	3	1	0.845330398071416	0.154669601928583	0	10	9	1	0
31	0	392	3	1	0.874396069016897	0.125603930983102	0	11	9	1	1
31	0	848.199999988079	3	0	0.139797422896058	0.860202577103941	1	12	9	1	0
31	0	374.200000017881	3	1	0.873503782543908	0.126496217456091	0	13	9	1	1
31	1	714.40000000596	3	0	0.155191265528631	0.844808734471368	1	14	9	1	1
31	1	349.30000001192	3	0	0.145257766674262	0.854742233325737	1	15	9	1	1
31	1	688.099999994039	3	1	0.818448840203762	0.181551159796237	0	16	9	1	0
31	0	344.80000001192	3	1	0.822497197842441	0.177502802157558	0	17	9	1	1
31	1	320.699999988079	3	0	0.195196271401951	0.804803728598048	1	18	9	1	1
31	0	375.5	3	0	0.162342378502329	0.83765762149767	1	19	9	1	0
31	0	357.200000017881	3	0	0.138162138974365	0.861837861025634	1	20	9	1	0
31	0	345	3	1	0.858950758046214	0.141049241953785	0	21	9	1	1
31	1	323.5	3	0	0.15234859351908	0.847651406480919	1	22	9	1	1
31	0	386.200000017881	3	0	0.163809098915476	0.836190901084523	1	23	9	1	0
31	1	532.199999988079	3	0	0.195999584392879	0.80400041560712	1	24	9	1	1
31	0	645.80000001192	3	0	0.184670178366835	0.815329821633164	1	25	9	1	0
31	0	416.199999988079	1	0	0.447173746049021	0.552826253950978	1	1	10	1	0
31	1	515	1	1	0.528031380136726	0.471968619863273	0	2	10	1	0
31	0	495.90000000596	1	0	0.486199654212862	0.513800345787137	1	3	10	1	0
31	1	541.90000000596	1	1	0.571879343256334	0.428120656743665	0	4	10	1	0
31	1	457.30000001192	1	1	0.552252498376243	0.447747501623756	0	5	10	1	0
31	1	484.599999994039	1	1	0.550951594197701	0.449048405802298	0	6	10	1	0
31	0	511.90000000596	1	1	0.507966624396061	0.492033375603938	0	7	10	1	1
31	1	441.40000000596	1	1	0.542040417080583	0.457959582919416	0	8	10	1	0
31	0	680.899999976158	1	0	0.468924837241459	0.53107516275854	1	9	10	1	0
31	0	446.80000001192	1	0	0.423721800516406	0.576278199483593	1	10	10	1	0
31	0	841.80000001192	1	0	0.484840434495544	0.515159565504455	1	11	10	1	0
31	1	735.5	1	0	0.444604277990019	0.55539572200998	1	12	10	1	1
31	0	267.5	1	1	0.570880683775712	0.429119316224287	0	13	10	1	1
31	0	697.5	1	0	0.484423030700659	0.51557696929934	1	14	10	1	0
31	0	587.90000000596	1	0	0.461680323242725	0.538319676757274	1	15	10	1	0
31	1	419.299999982118	1	1	0.557393169288918	0.442606830711081	0	16	10	1	0
31	1	597.099999994039	1	1	0.533577178483035	0.466422821516965	0	17	10	1	0
31	0	608.099999994039	1	1	0.539496399265632	0.460503600734367	0	18	10	1	1
31	0	513.599999994039	1	0	0.432326824157966	0.567673175842033	1	19	10	1	0
31	1	418.599999994039	1	1	0.50344717331559	0.496552826684409	0	20	10	1	0
31	0	573.200000017881	1	0	0.460655810178271	0.539344189821728	1	21	10	1	0
31	1	516.700000017881	1	1	0.520073945862536	0.479926054137464	0	22	10	1	0
31	0	509.30000001192	1	0	0.430988835135905	0.569011164864094	1	23	10	1	0
31	1	453.199999988079	1	1	0.523597556672421	0.476402443327578	0	24	10	1	0
31	0	453	1	0	0.423010877409781	0.576989122590218	1	25	10	1	0
31	1	400.5	4	1	0.87435742616806	0.125642573831939	0	1	11	1	0
31	0	456.80000001192	4	0	0.132607361399381	0.867392638600619	1	2	11	1	0
31	0	411.799999982118	4	0	0.17278913429059	0.827210865709409	1	3	11	1	0
31	0	444	4	0	0.138074567073167	0.861925432926832	1	4	11	1	0
31	1	355.099999994039	4	0	0.130519358537172	0.869480641462827	1	5	11	1	1
31	1	383.099999994039	4	0	0.17801574356296	0.821984256437039	1	6	11	1	1
31	1	419.099999994039	4	0	0.128867087524948	0.871132912475051	1	7	11	1	1
31	0	318.5	4	1	0.831188142530821	0.168811857469178	0	8	11	1	1
31	0	376	4	1	0.829142152176322	0.170857847823677	0	9	11	1	1
31	0	367	4	1	0.836139300359843	0.163860699640156	0	10	11	1	1
31	0	389.599999994039	4	1	0.826624884450446	0.173375115549553	0	11	11	1	1
31	1	314.699999988079	4	0	0.180474509264303	0.819525490735696	1	12	11	1	1
31	1	452.5	4	0	0.189981797161591	0.810018202838408	1	13	11	1	1
31	0	354.30000001192	4	1	0.835351595257766	0.164648404742233	0	14	11	1	1
31	0	380.5	4	1	0.830984581037168	0.169015418962831	0	15	11	1	1
31	0	556.30000001192	4	1	0.873304319105297	0.126695680894702	0	16	11	1	1
31	0	481.899999976158	4	1	0.827670458005679	0.17232954199432	0	17	11	1	1
31	1	498.30000001192	4	0	0.14512581715332	0.854874182846679	1	18	11	1	1
31	0	392.30000001192	4	1	0.82890262918805	0.171097370811949	0	19	11	1	1
31	1	441.299999982118	4	0	0.186541536784032	0.813458463215967	1	20	11	1	1
31	1	404.80000001192	4	0	0.1761479876656	0.8238520123344	1	21	11	1	1
31	0	421.40000000596	4	1	0.802582306228852	0.197417693771147	0	22	11	1	1
31	1	361.699999988079	4	0	0.171163283301235	0.828836716698764	1	23	11	1	1
31	0	381	4	1	0.869120583192613	0.130879416807386	0	24	11	1	1
31	1	355.90000000596	4	0	0.154131620543202	0.845868379456797	1	25	11	1	1
31	1	638.099999994039	3	0	0.197920771194667	0.802079228805332	0	1	12	0	0
31	0	369.40000000596	3	0	0.132533439978229	0.86746656002177	0	2	12	0	1
31	0	375.799999982118	3	0	0.182486887824341	0.817513112175658	0	3	12	0	1
31	1	370.299999982118	3	1	0.879288721767808	0.120711278232191	1	4	12	0	1
31	1	362.700000017881	3	1	0.814734326206717	0.185265673793282	1	5	12	0	1
31	1	386.099999994039	3	1	0.870001127221555	0.129998872778444	1	6	12	0	1
31	1	479.30000001192	3	0	0.15050129587711	0.849498704122889	0	7	12	0	0
31	0	396	3	0	0.164308004838401	0.835691995161598	0	8	12	0	1
31	0	372.100000023841	3	0	0.191802158713047	0.808197841286952	0	9	12	0	1
31	0	416.599999994039	3	0	0.194703631661874	0.805296368338126	0	10	12	0	1
31	1	372.099999994039	3	1	0.811228391273058	0.188771608726941	1	11	12	0	1
31	1	393.80000001192	3	1	0.852824701291231	0.147175298708768	1	12	12	0	1
31	1	399.80000001192	3	1	0.839206475897521	0.160793524102479	1	13	12	0	1
31	1	430.099999994039	3	1	0.808578794563633	0.191421205436366	1	14	12	0	1
31	1	429.099999994039	3	1	0.871549124827646	0.128450875172353	1	15	12	0	1
31	0	419.599999994039	3	0	0.17949507958788	0.820504920412119	0	16	12	0	1
31	0	681.5	3	1	0.823556709958766	0.176443290041233	1	17	12	0	0
31	1	357.299999982118	3	1	0.847568592326095	0.152431407673904	1	18	12	0	1
31	1	429.5	3	1	0.809551427877954	0.190448572122045	1	19	12	0	1
31	0	420	3	0	0.175510456228347	0.824489543771652	0	20	12	0	1
31	1	588.299999982118	3	0	0.155524634071515	0.844475365928484	0	21	12	0	0
31	1	574.5	3	0	0.164868643865325	0.835131356134674	0	22	12	0	0
31	1	570.90000000596	3	1	0.823772599181884	0.176227400818116	1	23	12	0	1
31	0	374	3	0	0.16624196352436	0.833758036475639	0	24	12	0	1
31	0	319	3	1	0.816540669613402	0.183459330386597	1	25	12	0	0
31	0	627.099999994039	4	1	0.820240451335954	0.179759548664045	1	1	13	0	0
31	1	440.90000000596	4	0	0.150397547032366	0.849602452967634	0	2	13	0	0
31	0	418.40000000596	4	0	0.147804512734322	0.852195487265677	0	3	13	0	1
31	1	380.099999994039	4	1	0.849191328467174	0.150808671532825	1	4	13	0	1
31	0	369.199999988079	4	0	0.19755800477216	0.802441995227839	0	5	13	0	1
31	1	382.5	4	1	0.875309091423847	0.124690908576152	1	6	13	0	1
31	1	379.799999982118	4	1	0.850211502630258	0.149788497369741	1	7	13	0	1
31	1	360.600000023841	4	1	0.820539036464439	0.17946096353556	1	8	13	0	1
31	0	430.799999982118	4	0	0.156086822242789	0.84391317775721	0	9	13	0	1
31	0	399.599999994039	4	0	0.135198307126071	0.864801692873928	0	10	13	0	1
31	0	394.80000001192	4	0	0.183893575265729	0.81610642473427	0	11	13	0	1
31	0	388.90000000596	4	0	0.170029557544553	0.829970442455446	0	12	13	0	1
31	1	408.5	4	1	0.804568609109123	0.195431390890876	1	13	13	0	1
31	0	363.600000023841	4	0	0.147258167033883	0.852741832966116	0	14	13	0	1
31	1	463.40000000596	4	1	0.810935110872578	0.189064889127421	1	15	13	0	1
31	1	402.5	4	1	0.806234659187719	0.19376534081228	1	16	13	0	1
31	0	415.199999988079	4	0	0.160295245125399	0.8397047548746	0	17	13	0	1
31	1	384	4	1	0.871471094776628	0.128528905223371	1	18	13	0	1
31	0	346.599999994039	4	0	0.131362545493868	0.868637454506131	0	19	13	0	1
31	1	387.299999982118	4	1	0.82228840379916	0.17771159620084	1	20	13	0	1
31	0	353	4	0	0.180881801913049	0.81911819808695	0	21	13	0	1
31	1	393.80000001192	4	1	0.842584229028682	0.157415770971317	1	22	13	0	1
31	0	278.600000023841	4	0	0.169630239765163	0.830369760234836	0	23	13	0	1
31	1	366	4	1	0.823649676934844	0.176350323065155	1	24	13	0	1
31	0	367.40000000596	4	0	0.137277649723321	0.862722350276678	0	25	13	0	1
31	0	457.099999994039	2	1	0.551967059172583	0.448032940827416	0	1	14	1	1
31	1	525.099999994039	2	0	0.452898158686874	0.547101841313125	1	2	14	1	1
31	0	560.30000001192	2	1	0.562975845580362	0.437024154419637	0	3	14	1	1
31	1	451.40000000596	2	0	0.47161128066078	0.528388719339219	1	4	14	1	1
31	0	543.699999988079	2	0	0.427665838753716	0.572334161246284	1	5	14	1	0
31	0	685.30000001192	2	1	0.514242950089338	0.485757049910661	0	6	14	1	1
31	0	568.80000001192	2	1	0.523151326142471	0.476848673857528	0	7	14	1	1
31	1	460.200000017881	2	0	0.481856857630093	0.518143142369906	1	8	14	1	1
31	0	566.199999988079	2	0	0.481288903205883	0.518711096794116	1	9	14	1	0
31	1	560.30000001192	2	0	0.428913241528684	0.571086758471315	1	10	14	1	1
31	0	695.30000001192	2	1	0.502763879904834	0.497236120095165	0	11	14	1	1
31	0	712.699999988079	2	1	0.546319689765303	0.453680310234696	0	12	14	1	1
31	0	480.099999994039	2	1	0.565522473353985	0.434477526646014	0	13	14	1	1
31	1	708.30000001192	2	1	0.512036222333721	0.487963777666278	0	14	14	1	0
31	0	609.599999994039	2	1	0.577701778991199	0.4222982210088	0	15	14	1	1
31	1	527.599999994039	2	0	0.433586921295403	0.566413078704596	1	16	14	1	1
31	0	399.30000001192	2	1	0.52967710067172	0.470322899328279	0	17	14	1	1
31	1	390.699999988079	2	1	0.531894751325749	0.468105248674251	0	18	14	1	0
31	1	496.399999976158	2	0	0.429474374305883	0.570525625694116	1	19	14	1	1
31	0	641.599999994039	2	0	0.498642182495509	0.50135781750449	1	20	14	1	0
31	1	576.299999982118	2	0	0.43756053797073	0.562439462029269	1	21	14	1	1
31	1	482.90000000596	2	0	0.467439883513231	0.532560116486768	1	22	14	1	1
31	1	423.5	2	0	0.428400046420039	0.571599953579961	1	23	14	1	1
31	0	489.5	2	1	0.579705637494625	0.420294362505374	0	24	14	1	1
31	0	402.599999994039	2	1	0.564918791215415	0.435081208784584	0	25	14	1	1
31	1	569.200000017881	2	0	0.448344356193266	0.551655643806733	0	1	15	0	0
31	0	476.200000017881	2	0	0.47443997260392	0.525560027396079	0	2	15	0	1
31	0	690.30000001192	2	1	0.559391987716532	0.440608012283467	1	3	15	0	0
31	0	462.299999982118	2	0	0.476730839226109	0.523269160773891	0	4	15	0	1
31	1	506	2	1	0.57131881653278	0.428681183467219	1	5	15	0	1
31	1	471.100000023841	2	1	0.576173616738668	0.423826383261331	1	6	15	0	1
31	0	485.90000000596	2	0	0.459788097466126	0.540211902533873	0	7	15	0	1
31	1	464.799999982118	2	1	0.561850979681922	0.438149020318077	1	8	15	0	1
31	1	485.100000023841	2	1	0.5664628928178	0.433537107182199	1	9	15	0	1
31	0	419.40000000596	2	0	0.429044600043477	0.570955399956522	0	10	15	0	1
31	0	448.5	2	0	0.478820108935211	0.521179891064788	0	11	15	0	1
31	1	593.30000001192	2	1	0.531036355629414	0.468963644370585	1	12	15	0	1
31	1	533.5	2	1	0.570058577033636	0.429941422966363	1	13	15	0	1
31	0	391.40000000596	2	0	0.457613467989097	0.542386532010902	0	14	15	0	1
31	0	410.40000000596	2	0	0.42175417534749	0.578245824652509	0	15	15	0	1
31	0	381	2	0	0.436601031156947	0.563398968843052	0	16	15	0	1
31	0	450.099999994039	2	0	0.425642205571724	0.574357794428275	0	17	15	0	1
31	1	450.5	2	1	0.549118363642533	0.450881636357466	1	18	15	0	1
31	1	413	2	0	0.480301249617089	0.51969875038291	0	19	15	0	0
31	0	507.5	2	0	0.468388355040893	0.531611644959106	0	20	15	0	1
31	1	430	2	1	0.516343282998597	0.483656717001402	1	21	15	0	1
31	1	422.299999982118	2	1	0.533082139763193	0.466917860236806	1	22	15	0	1
31	1	468.90000000596	2	1	0.507729847623985	0.492270152376015	1	23	15	0	1
31	1	446.199999988079	2	1	0.50933133530382	0.490668664696179	1	24	15	0	1
31	1	446.100000023841	2	1	0.532478689050617	0.467521310949382	1	25	15	0	1
31	1	351.90000000596	1	1	0.522654054495922	0.477345945504077	1	1	16	0	1
31	1	739.30000001192	1	0	0.470168174640928	0.529831825359071	0	2	16	0	0
31	0	471.599999994039	1	1	0.565458194967483	0.434541805032517	1	3	16	0	0
31	0	924.699999988079	1	0	0.465654257681645	0.534345742318354	0	4	16	0	1
31	1	531.5	1	1	0.523270807605002	0.476729192394997	1	5	16	0	1
31	0	734	1	1	0.511584577465398	0.488415422534601	1	6	16	0	0
31	1	598.5	1	0	0.450754414091254	0.549245585908745	0	7	16	0	0
31	1	524.099999994039	1	0	0.463006647188336	0.536993352811663	0	8	16	0	0
31	0	547.30000001192	1	1	0.526461341356677	0.473538658643322	1	9	16	0	0
31	1	551.90000000596	1	0	0.454867979982171	0.545132020017828	0	10	16	0	0
31	1	521.30000001192	1	1	0.548644710801215	0.451355289198784	1	11	16	0	1
31	1	739.40000000596	1	1	0.506540735990888	0.493459264009111	1	12	16	0	1
31	1	423.099999994039	1	1	0.573391355485347	0.426608644514652	1	13	16	0	1
31	1	598	1	1	0.549039596425333	0.450960403574666	1	14	16	0	1
31	0	921.40000000596	1	0	0.492199273751839	0.50780072624816	0	15	16	0	1
31	1	379.099999994039	1	1	0.563722311856393	0.436277688143606	1	16	16	0	1
31	0	538.90000000596	1	0	0.462867037273872	0.537132962726127	0	17	16	0	1
31	0	597.40000000596	1	0	0.441458626033157	0.558541373966842	0	18	16	0	1
31	0	496.30000001192	1	0	0.439379128944894	0.560620871055105	0	19	16	0	1
31	1	710.799999982118	1	0	0.472368181841115	0.527631818158884	0	20	16	0	0
31	1	849.199999988079	1	0	0.470477239790176	0.529522760209823	0	21	16	0	0
31	1	465.5	1	1	0.559445483392815	0.440554516607184	1	22	16	0	1
31	0	640.90000000596	1	1	0.505482016139081	0.494517983860918	1	23	16	0	0
31	1	458.80000001192	1	1	0.546774685163822	0.453225314836177	1	24	16	0	1
31	0	400.90000000596	1	0	0.443624103655977	0.556375896344022	0	25	16	0	1
