ID	choice	rt	choice_cond	state	contrast_left	contrast_right	mu	correct	trials	blocks	contrast	congruence	con_diff_choice	ecoperf
280	0	[854.2999999998137]	1	0	0.478733572903998	0.521266427096001	100	1	1	1	0	1	0.042532854192003	1
280	1	[353.70000000018626,369.70000000018626,669.2999999998137]	1	0	0.420980742768357	0.579019257231642	73	1	2	1	0	1	0.158038514463285	0
280	0	[252.79999999981374]	1	1	0.569468059971009	0.430531940028991	27	0	3	1	0	1	0.138936119942018	0
280	1	[262.40000000037253]	1	1	0.584078125067449	0.41592187493255	1	0	4	1	0	1	0.168156250134899	1
280	0	[303.59999999962747]	1	1	0.575083704612381	0.424916295387618	NaN	0	5	1	0	1	0.150167409224763	0
280	1	[454.29999999981374]	1	1	0.51085504352856	0.489144956471439	98	1	6	1	0	1	0.021710087057121	1
280	1	[300.90000000037253]	1	0	0.40431145210583	0.595688547894169	2	0	7	1	0	1	0.191377095788339	0
280	0	[214.40000000037253]	1	1	0.58132276241374	0.41867723758626	2	1	8	1	0	1	0.16264552482748	0
280	1	[452.8999999994412]	1	0	0.465850513601166	0.534149486398833	2	1	9	1	0	1	0.0682989727976669	0
280	1	[287.40000000037253]	1	0	0.406193052568376	0.593806947431623	99	0	10	1	0	1	0.187613894863247	0
280	0	[258.8999999994412]	1	0	0.417161963656147	0.582838036343852	99	1	11	1	0	1	0.165676072687705	1
280	1	[316.20000000018626]	1	1	0.553606840085964	0.446393159914035	97	1	12	1	0	1	0.107213680171929	1
280	1	[329.20000000018626]	1	1	0.591822794534557	0.408177205465442	0	0	13	1	0	1	0.183645589069115	1
280	0	[673.2000000001863]	1	0	0.400084297457252	0.599915702542747	98	1	14	1	0	1	0.199831405085495	1
280	1	[403.79999999981374]	1	1	0.588687873267517	0.411312126732482	98	1	15	1	0	1	0.177375746535035	1
280	1	[465]	1	1	0.515368077364596	0.484631922635403	96	1	16	1	0	1	0.030736154729193	1
280	0	[380.30000000074506]	1	0	0.452752652919749	0.54724734708025	4	0	17	1	0	1	0.094494694160501	1
280	1	[358]	1	0	0.43640345323027	0.563596546769729	97	0	18	1	0	1	0.127193093539459	0
280	0	[580.7999999998137]	1	0	0.407995126317364	0.592004873682636	4	0	19	1	0	1	0.184009747365272	1
280	1	[422.40000000037253]	1	0	0.436952770867998	0.563047229132001	95	0	20	1	0	1	0.126094458264003	0
280	1	[267.20000000018626]	1	1	0.524407046501746	0.475592953498254	93	1	21	1	0	1	0.048814093003492	1
280	1	[895.2999999998137]	1	1	0.522284607306659	0.47771539269334	6	0	22	1	0	1	0.044569214613319	1
280	1	[431.59999999962747]	1	0	0.401785910310991	0.598214089689008	91	0	23	1	0	1	0.196428179378017	0
280	1	[537.0999999996275]	1	0	0.409174444288251	0.590825555711748	91	0	24	1	0	1	0.181651111423497	0
280	0	[372.29999999981374]	1	1	0.571910019129855	0.428089980870144	90	0	25	1	0	1	0.143820038259711	0
280	1	[818]	1	1	0.582039791665862	0.417960208334137	83	0	1	2	1	1	0.164079583331725	0
280	1	[614]	1	1	0.585999523040263	0.414000476959736	4	1	2	2	1	1	0.171999046080527	0
280	0	[367.40000000037253]	1	1	0.58026567415069	0.419734325849309	95	1	3	2	1	1	0.160531348301381	1
280	1	[714.4000000003725]	1	1	0.586754891987569	0.41324510801243	8	1	4	2	1	1	0.173509783975139	0
280	1	[552]	1	0	0.457270270676584	0.542729729323415	93	1	5	2	1	1	0.085459458646831	1
280	1	[605.7999999998137]	1	1	0.523157161090678	0.476842838909321	95	0	6	2	1	1	0.046314322181357	0
280	0	[296]	1	0	0.4102863156938	0.589713684306199	89	0	7	2	1	1	0.179427368612399	0
280	1	[358.30000000074506]	1	1	0.536532860836319	0.46346713916368	84	0	8	2	1	1	0.073065721672639	0
280	0	[500.20000000018626]	1	0	0.441694464415161	0.558305535584838	7	1	9	2	1	1	0.116611071169677	0
280	1	[848.9000000003725]	1	1	0.589381931159643	0.410618068840356	88	0	10	2	1	1	0.178763862319287	0
280	1	[395.90000000037253]	1	1	0.553601014956442	0.446398985043557	7	1	11	2	1	1	0.107202029912885	0
280	1	[349.20000000018626]	1	0	0.450909339622994	0.549090660377005	87	1	12	2	1	1	0.098181320754011	1
280	1	[600.7999999998137]	1	1	0.545280545603427	0.454719454396572	85	0	13	2	1	1	0.090561091206855	0
280	1	[383]	1	0	0.422996470863006	0.577003529136993	87	1	14	2	1	1	0.154007058273987	1
280	1	[448.1000000005588]	1	0	0.486623019955845	0.513376980044155	27	0	15	2	1	1	0.02675396008831	1
280	0	[295.70000000018626]	1	0	0.494400406941263	0.505599593058736	74	0	16	2	1	1	0.011199186117473	0
280	1	[261]	1	0	0.49847378509527	0.501526214904729	25	0	17	2	1	1	0.00305242980945902	1
280	0	[374.20000000018626]	1	0	0.453428977983041	0.546571022016958	25	0	18	2	1	1	0.093142044033917	0
280	1	[286.6000000005588]	1	0	0.410451798796107	0.589548201203892	83	1	19	2	1	1	0.179096402407785	1
280	1	[342.90000000037253]	1	1	0.573136903775922	0.426863096224077	75	1	20	2	1	1	0.146273807551845	0
280	1	[352.40000000037253]	1	0	0.440769407602104	0.559230592397895	89	1	21	2	1	1	0.118461184795791	1
280	1	[338.30000000074506]	1	0	0.425554329997705	0.574445670002294	22	0	22	2	1	1	0.148891340004589	1
280	1	[412.69999999925494]	1	1	0.535248332612109	0.46475166738789	87	0	23	2	1	1	0.070496665224219	0
280	0	[333.8999999994412]	1	0	0.450100977489854	0.549899022510145	26	0	24	2	1	1	0.099798045020291	0
280	1	[310.29999999981374]	1	1	0.526301915625505	0.473698084374494	33	0	25	2	1	1	0.052603831251011	0
280	1	[288.79999999981374]	3	1	0.925015378443957	0.0749846215560425	90	1	1	3	0	1	0.850030756887915	1
280	0	[294.29999999981374]	3	0	0.0717059621620047	0.928294037837995	85	1	2	3	0	1	0.85658807567599	1
280	0	[396.1000000005588]	3	0	0.119179919665219	0.88082008033478	14	0	3	3	0	1	0.761640160669561	1
280	1	[294.5]	3	1	0.931879166843452	0.0681208331565476	7	0	4	3	0	1	0.863758333686904	1
280	0	[348.59999999962747]	3	1	0.92235910714242	0.0776408928575791	92	0	5	3	0	1	0.844718214284841	0
280	1	[367.40000000037253]	3	0	0.131428691410877	0.868571308589122	83	0	6	3	0	1	0.737142617178245	0
280	0	[447.40000000037253]	3	1	0.882450511788675	0.117549488211324	16	0	7	3	0	1	0.764901023577351	0
280	1	[427.90000000037253]	3	0	0.130388251630324	0.869611748369675	12	1	8	3	0	1	0.739223496739351	0
280	1	[693.7999999998137]	3	1	0.890690183218068	0.109309816781931	20	0	9	3	0	1	0.781380366436137	1
280	1	[555.2000000001863]	3	0	0.0935085867764556	0.906491413223544	80	0	10	3	0	1	0.812982826447088	0
280	1	[513.9000000003725]	3	0	0.102807837747122	0.897192162252877	83	0	11	3	0	1	0.794384324505755	0
280	0	[580.2999999998137]	3	1	0.854847632545245	0.145152367454755	78	0	12	3	0	1	0.70969526509049	0
280	0	[594.5]	3	0	0.0592047168307476	0.940795283169252	79	1	13	3	0	1	0.881590566338504	1
280	0	[988.2999999998137]	3	1	0.887672489673708	0.112327510326291	13	1	14	3	0	1	0.775344979347417	0
280	0	[454.69999999925494]	3	1	0.936605985944208	0.0633940140557914	22	0	15	3	0	1	0.873211971888417	0
280	1	[684.2999999998137]	3	0	0.0730583968922932	0.926941603107706	9	1	16	3	0	1	0.853883206215413	0
280	1	[822]	3	1	0.933786167987271	0.0662138320127287	86	1	17	3	0	1	0.867572335974542	1
280	1	[531.5]	3	0	0.111626666073112	0.888373333926887	81	0	18	3	0	1	0.776746667853775	0
280	0	[743.7000000001863]	3	0	0.102598247542358	0.897401752457641	11	0	19	3	0	1	0.794803504915283	1
280	1	[626.2000000001863]	3	0	0.0554753671111404	0.944524632888859	81	0	20	3	0	1	0.889049265777719	0
280	0	[395.8999999994412]	3	1	0.878509220497123	0.121490779502876	81	0	21	3	0	1	0.757018440994247	0
280	1	[448.29999999981374]	3	1	0.887301744218287	0.112698255781712	15	0	22	3	0	1	0.774603488436575	1
280	1	[437.19999999925494]	3	0	0.111114043554408	0.888885956445591	75	0	23	3	0	1	0.777771912891183	0
280	1	[619.1000000005588]	3	1	0.938883677143727	0.0611163228562725	88	0	24	3	0	1	0.877767354287454	1
280	0	[434.5]	3	1	0.931397784660858	0.0686022153391415	80	0	25	3	0	1	0.862795569321717	0
280	1	[358.09999999962747]	1	0	0.457969075951343	0.542030924048656	8	0	1	4	0	0	0.084061848097313	0
280	1	[322.1000000005588]	1	0	0.412134167156009	0.58786583284399	78	1	2	4	0	0	0.175731665687981	0
280	0	[355.69999999925494]	1	1	0.5011794392227	0.498820560777299	10	0	3	4	0	0	0.002358878445401	0
280	1	[455.29999999981374]	1	1	0.500073386549204	0.499926613450796	79	1	4	4	0	0	0.000146773098407993	1
280	0	[651.2999999998137]	1	1	0.580857548759764	0.419142451240235	72	1	5	4	0	0	0.161715097519529	0
280	1	[26.399999999441206,546.8999999994412]	1	0	0.441202516798766	0.558797483201233	21	0	6	4	0	0	0.117594966402467	0
280	0	[422.30000000074506]	1	1	0.568658828731673	0.431341171268326	17	0	7	4	0	0	0.137317657463347	0
280	1	[576.5]	1	0	0.491368367492586	0.508631632507413	75	1	8	4	0	0	0.0172632650148269	0
280	1	[669.7000000001863]	1	0	0.494694491675508	0.505305508324491	18	0	9	4	0	0	0.010611016648983	0
280	1	[733.7999999998137]	1	1	0.526950018081729	0.47304998191827	29	0	10	4	0	0	0.053900036163459	1
280	1	[649.7999999998137]	1	0	0.481111031454152	0.518888968545847	31	0	11	4	0	0	0.037777937091695	0
280	1	[84.5,994.8999999994412]	1	1	0.582707790699032	0.417292209300967	15	1	12	4	0	0	0.165415581398065	1
280	1	[629.5999999996275]	1	0	0.470548947552281	0.529451052447718	11	0	13	4	0	0	0.058902104895437	0
280	0	[296.70000000018626]	1	0	0.461738824526493	0.538261175473506	13	0	14	4	0	0	0.076522350947013	1
280	1	[338.79999999981374]	1	1	0.509060135374308	0.490939864625692	13	0	15	4	0	0	0.0181202707486161	1
280	0	[347.59999999962747]	1	1	0.523924764432661	0.476075235567338	13	0	16	4	0	0	0.047849528865323	0
280	1	[341.8999999994412]	1	0	0.497149250783944	0.502850749216055	13	0	17	4	0	0	0.00570149843211099	0
280	1	[389.79999999981374]	1	0	0.414803670365876	0.585196329634123	16	1	18	4	0	0	0.170392659268247	0
280	1	[338.20000000018626]	1	0	0.485777676420034	0.514222323579965	17	0	19	4	0	0	0.028444647159931	0
280	0	[395.1000000005588]	1	0	0.449538832932606	0.550461167067394	11	1	20	4	0	0	0.100922334134788	1
280	1	[400.29999999981374]	1	1	0.566789520519884	0.433210479480115	13	1	21	4	0	0	0.133579041039769	1
280	0	[611]	1	0	0.466871768194611	0.533128231805388	14	1	22	4	0	0	0.066256463610777	1
280	1	[329.30000000074506]	1	1	0.540877872008443	0.459122127991556	7	0	23	4	0	0	0.081755744016887	1
280	1	[801.1000000005588]	1	1	0.522396349516038	0.477603650483961	25	0	24	4	0	0	0.044792699032077	1
280	0	[832.5]	1	1	0.569770416027773	0.430229583972226	22	0	25	4	0	0	0.139540832055547	0
280	1	[490.20000000018626]	2	1	0.56777792214193	0.432222077858069	26	0	1	5	1	0	0.135555844283861	0
280	0	[294.29999999981374]	2	0	0.453819620838323	0.546180379161676	20	0	2	5	1	0	0.0923607583233531	0
280	1	[304.20000000018626]	2	0	0.449083248986229	0.55091675101377	30	1	3	5	1	0	0.101833502027541	1
280	0	[606.8999999994412]	2	1	0.555004423516175	0.444995576483824	26	1	4	5	1	0	0.110008847032351	1
280	1	[536.2000000001863]	2	1	0.532652767142219	0.46734723285778	74	0	5	5	1	0	0.065305534284439	0
280	1	[927.8999999994412]	2	1	0.571676330647688	0.428323669352311	28	0	6	5	1	0	0.143352661295377	0
280	0	[340.20000000018626]	2	1	0.579287030458251	0.420712969541748	10	1	7	5	1	0	0.158574060916503	1
280	1	[701.4000000003725]	2	1	0.573893663318914	0.426106336681085	19	0	8	5	1	0	0.147787326637829	0
280	0	[325.70000000018626]	2	1	0.502403944076689	0.49759605592331	80	1	9	5	1	0	0.00480788815337896	1
280	1	[547.1000000005588]	2	0	0.487263016608162	0.512736983391837	86	1	10	5	1	0	0.025473966783675	1
280	0	[395.1000000005588]	2	1	0.527907641148001	0.472092358851998	87	1	11	5	1	0	0.055815282296003	1
280	1	[409.70000000018626]	2	0	0.456376958278683	0.543623041721316	26	1	12	5	1	0	0.087246083442633	1
280	0	[376]	2	0	0.484103703518649	0.51589629648135	27	0	13	5	1	0	0.031792592962701	0
280	1	[394.1000000005588]	2	0	0.401345709172311	0.598654290827688	11	1	14	5	1	0	0.197308581655377	1
280	1	[363.19999999925494]	2	0	0.441744634457144	0.558255365542855	30	1	15	5	1	0	0.116510731085711	1
280	0	[402.3999999994412]	2	0	0.429248412834489	0.57075158716551	13	0	16	5	1	0	0.141503174331021	0
280	1	[398.29999999981374]	2	0	0.457842985361224	0.542157014638775	20	1	17	5	1	0	0.084314029277551	1
280	1	[378.29999999981374]	2	0	0.490997829569095	0.509002170430904	78	1	18	5	1	0	0.018004340861809	1
280	1	[630.4000000003725]	2	1	0.558299170893112	0.441700829106887	8	0	19	5	1	0	0.116598341786225	0
280	0	[324.59999999962747]	2	0	0.497377044172683	0.502622955827317	11	0	20	5	1	0	0.00524591165463395	0
280	1	[341.79999999981374]	2	1	0.524956385212982	0.475043614787017	10	0	21	5	1	0	0.049912770425965	0
280	1	[661.7999999998137]	2	0	0.417508856576722	0.582491143423277	15	1	22	5	1	0	0.164982286846555	1
280	1	[660.8999999994412]	2	0	0.499844322759193	0.500155677240806	16	1	23	5	1	0	0.000311354481613013	1
280	1	[364.30000000074506]	2	1	0.557357907084594	0.442642092915405	22	0	24	5	1	0	0.114715814169189	0
280	0	[568.5999999996275]	2	1	0.539920851098132	0.460079148901867	62	0	25	5	1	0	0.079841702196265	1
280	0	[314.79999999981374]	3	0	0.076484180465682	0.923515819534317	10	1	1	6	0	0	0.847031639068635	1
280	0	[577.5999999996275]	3	1	0.8726761045638	0.127323895436199	10	0	2	6	0	0	0.745352209127601	0
280	1	[311.20000000018626]	3	0	0.142595655694264	0.857404344305735	96	1	3	6	0	0	0.714808688611471	0
280	1	[426.8999999994412]	3	1	0.906645408553088	0.0933545914469113	6	1	4	6	0	0	0.813290817106177	1
280	1	[461.79999999981374]	3	1	0.932035811899297	0.0679641881007023	93	0	5	6	0	0	0.864071623798595	1
280	0	[776.4000000003725]	3	1	0.931054419860843	0.0689455801391563	7	0	6	6	0	0	0.862108839721687	0
280	1	[426.5]	3	1	0.918086012601629	0.0819139873983703	7	1	7	6	0	0	0.836172025203259	1
280	1	[714.2999999998137]	3	0	0.0916229611141239	0.908377038885876	5	0	8	6	0	0	0.816754077771752	0
280	1	[335]	3	0	0.127444422362037	0.872555577637962	92	1	9	6	0	0	0.745111155275925	0
280	1	[566.2999999998137]	3	1	0.945518321893073	0.0544816781069267	91	0	10	6	0	0	0.891036643786146	1
280	1	[381.69999999925494]	3	1	0.925045767841939	0.0749542321580606	7	1	11	6	0	0	0.850091535683878	1
280	1	[477.29999999981374]	3	1	0.927823018451647	0.0721769815483525	89	0	12	6	0	0	0.855646036903295	1
280	1	[745.2999999998137]	3	1	0.889418785451303	0.110581214548696	8	1	13	6	0	0	0.778837570902607	1
280	1	[370.59999999962747]	3	1	0.870263523610788	0.129736476389211	7	1	14	6	0	0	0.740527047221577	1
280	0	[371.90000000037253]	3	1	0.941310271572668	0.0586897284273312	7	0	15	6	0	0	0.882620543145337	0
280	1	[331.40000000037253]	3	0	0.111948195310979	0.88805180468902	7	0	16	6	0	0	0.776103609378041	0
280	1	[505]	3	0	0.12854890517241	0.871451094827589	8	0	17	6	0	0	0.742902189655179	0
280	1	[531.9000000003725]	3	1	0.856255320063933	0.143744679936066	88	0	18	6	0	0	0.712510640127867	1
280	0	[440]	3	0	0.145441975316865	0.854558024683134	6	1	19	6	0	0	0.709116049366269	1
280	0	[409.40000000037253]	3	0	0.109633999922954	0.890366000077045	86	0	20	6	0	0	0.780732000154091	1
280	1	[438.90000000037253]	3	0	0.0686312945238373	0.931368705476162	8	0	21	6	0	0	0.862737410952325	0
280	0	[267.90000000037253]	3	0	0.0550257174193493	0.94497428258065	91	0	22	6	0	0	0.889948565161301	1
280	1	[708.7999999998137]	3	0	0.120190376823385	0.879809623176614	11	0	23	6	0	0	0.759619246353229	0
280	0	[427.70000000018626]	3	1	0.914792252828976	0.0852077471710232	9	0	24	6	0	0	0.829584505657953	0
280	0	[503.3999999994412]	3	0	0.14406442524627	0.855935574753729	14	1	25	6	0	0	0.711871149507459	1
280	1	[694.9000000003725]	3	1	0.926495621515079	0.073504378484921	10	0	1	7	1	0	0.852991243030158	0
280	1	[553.5]	3	0	0.105583989828012	0.894416010171987	11	1	2	7	1	0	0.788832020343975	1
280	0	[394.6000000005588]	3	0	0.057784144508129	0.94221585549187	11	0	3	7	1	0	0.884431710983741	0
280	1	[338.40000000037253]	3	0	0.0871660203912582	0.912833979608741	87	0	4	7	1	0	0.825667959217483	1
280	0	[406.70000000018626]	3	0	0.0866573222505262	0.913342677749473	8	0	5	7	1	0	0.826685355498947	0
280	1	[374.70000000018626]	3	1	0.937778411911282	0.0622215880887175	83	1	6	7	1	0	0.875556823822565	0
280	1	[429.29999999981374]	3	1	0.918357039411771	0.0816429605882282	6	0	7	7	1	0	0.836714078823543	0
280	0	[485.79999999981374]	3	0	0.0608820359025317	0.939117964097468	11	0	8	7	1	0	0.878235928194936	0
280	1	[743.2000000001863]	3	1	0.881713245997175	0.118286754002824	92	1	9	7	1	0	0.763426491994351	0
280	1	[405.30000000074506]	3	0	0.0832374229973412	0.916762577002658	81	0	10	7	1	0	0.833525154005317	1
280	0	[414.20000000018626]	3	1	0.889795892026686	0.110204107973313	11	1	11	7	1	0	0.779591784053373	1
280	1	[675.2999999998137]	3	1	0.859982015633989	0.14001798436601	9	0	12	7	1	0	0.719964031267979	0
280	1	[128]	3	0	0.137922687710726	0.862077312289273	11	1	13	7	1	0	0.724154624578547	1
280	0	[396.70000000018626]	3	0	0.0922959754650436	0.907704024534956	86	1	14	7	1	0	0.815408049069912	0
280	1	[525.0999999996275]	3	1	0.883960626816085	0.116039373183914	11	0	15	7	1	0	0.767921253632171	0
280	1	[263.5]	3	0	0.115153272286577	0.884846727713422	10	1	16	7	1	0	0.769693455426845	1
280	0	[548.0999999996275]	3	1	0.917291228308968	0.0827087716910313	83	0	17	7	1	0	0.834582456617937	1
280	1	[308.6000000005588]	3	1	0.882170740925775	0.117829259074224	13	0	18	7	1	0	0.764341481851551	0
280	0	[361.59999999962747]	3	0	0.127329245020258	0.872670754979741	16	0	19	7	1	0	0.745341509959483	0
280	1	[374.19999999925494]	3	1	0.878640018356391	0.121359981643608	83	1	20	7	1	0	0.757280036712783	0
280	0	[534.6000000005588]	3	0	0.110334993471515	0.889665006528484	11	0	21	7	1	0	0.779330013056969	0
280	1	[459.79999999981374]	3	1	0.903996888972993	0.0960031110270062	13	0	22	7	1	0	0.807993777945987	0
280	0	[419.5]	3	0	0.140629529594432	0.859370470405567	76	1	23	7	1	0	0.718740940811135	0
280	1	[885.7000000001863]	3	1	0.88741371920311	0.112586280796889	9	0	24	7	1	0	0.774827438406221	0
280	0	[414.20000000018626]	3	1	0.923024368901059	0.0769756310989405	14	1	25	7	1	0	0.846048737802119	1
280	0	[464.5,475]	3	1	0.920523851893151	0.0794761481068481	87	1	1	8	1	1	0.841047703786303	1
280	0	[483.69999999925494]	3	0	0.143731518917642	0.856268481082357	83	0	2	8	1	1	0.712536962164715	0
280	1	[321.5]	3	1	0.937797054449743	0.062202945550256	13	1	3	8	1	1	0.875594108899487	0
280	0	[466.90000000037253]	3	1	0.876229218211094	0.123770781788905	84	1	4	8	1	1	0.752458436422189	1
280	1	[819.2000000001863]	3	0	0.0799757353662342	0.920024264633765	84	1	5	8	1	1	0.840048529267531	1
280	1	[714.5]	3	1	0.875301531672614	0.124698468327385	13	1	6	8	1	1	0.750603063345229	0
280	0	[339.79999999981374]	3	0	0.0536173822932705	0.946382617706729	13	1	7	8	1	1	0.892765235413459	0
280	1	[367]	3	1	0.893882646868932	0.106117353131067	16	0	8	8	1	1	0.787765293737865	0
280	1	[439.19999999925494]	3	0	0.121830258470219	0.87816974152978	84	1	9	8	1	1	0.756339483059561	1
280	0	[431.40000000037253]	3	0	0.104768530070073	0.895231469929926	81	0	10	8	1	1	0.790462939859853	0
280	1	[337.3999999994412]	3	0	0.0793350987512256	0.920664901248774	14	0	11	8	1	1	0.841329802497548	1
280	1	[483.90000000037253]	3	0	0.141777350654457	0.858222649345542	82	1	12	8	1	1	0.716445298691085	1
280	0	[185.5]	3	1	0.91829979490478	0.0817002050952194	76	1	13	8	1	1	0.836599589809561	1
280	1	[539.5999999996275]	3	1	0.91664619365308	0.0833538063469194	79	0	14	8	1	1	0.833292387306161	0
280	0	[345.3999999994412]	3	0	0.107733328246437	0.892266671753562	14	1	15	8	1	1	0.784533343507125	0
280	1	[483.1000000005588]	3	0	0.12176615665259	0.87823384334741	77	1	16	8	1	1	0.75646768669482	1
280	1	[650.9000000003725]	3	0	0.141913566702144	0.858086433297855	78	1	17	8	1	1	0.716172866595711	1
280	0	[386.6000000005588]	3	1	0.916039728651815	0.0839602713481844	13	0	18	8	1	1	0.832079457303631	1
280	1	[348.1000000005588]	3	0	0.12957057403124	0.870429425968759	84	1	19	8	1	1	0.740858851937519	1
280	0	[780.5]	3	1	0.893118000629594	0.106881999370405	86	1	20	8	1	1	0.786236001259189	1
280	1	[416.29999999981374]	3	0	0.12416896932077	0.875831030679229	15	0	21	8	1	1	0.751662061358459	1
280	1	[362.90000000037253]	3	1	0.866363978123003	0.133636021876996	13	1	22	8	1	1	0.732727956246007	0
280	1	[243.5]	3	0	0.0862975333265369	0.913702466673463	86	1	23	8	1	1	0.827404933346926	1
280	0	[455.70000000018626]	3	1	0.923812875616115	0.0761871243838844	89	1	24	8	1	1	0.847625751232231	1
280	1	[305.20000000018626]	3	1	0.855979322610637	0.144020677389362	84	0	25	8	1	1	0.711958645221275	0
280	1	[483.20000000018626]	1	0	0.488923428804101	0.511076571195898	83	1	1	9	1	0	0.022153142391797	1
280	1	[321.5]	1	1	0.546286652605098	0.453713347394901	20	0	2	9	1	0	0.092573305210197	0
280	0	[273.79999999981374]	1	1	0.530768964957364	0.469231035042635	14	0	3	9	1	0	0.061537929914729	1
280	1	[304.6000000005588]	1	1	0.544404057091455	0.455595942908544	19	0	4	9	1	0	0.088808114182911	0
280	0	[146.20000000018626]	1	1	0.545927969132638	0.454072030867361	13	0	5	9	1	0	0.091855938265277	1
280	1	[531.2999999998137]	1	1	0.541243200640537	0.458756799359462	15	0	6	9	1	0	0.082486401281075	0
280	1	[379.6000000005588]	1	1	0.540379558900668	0.459620441099331	17	0	7	9	1	0	0.080759117801337	0
280	0	[429.5]	1	1	0.54584978765124	0.454150212348759	21	0	8	9	1	0	0.091699575302481	1
280	1	[454.70000000018626]	1	1	0.505862440040291	0.494137559959708	17	0	9	9	1	0	0.011724880080583	0
280	1	[391.5]	1	1	0.505631011167216	0.494368988832783	25	1	10	9	1	0	0.011262022334433	0
280	1	[733.9000000003725]	1	0	0.438585286013964	0.561414713986035	11	1	11	9	1	0	0.122829427972071	1
280	0	[611.7000000001863]	1	0	0.415977767309607	0.584022232690392	90	1	12	9	1	0	0.168044465380785	0
280	1	[279.90000000037253]	1	0	0.446423163868842	0.553576836131157	11	1	13	9	1	0	0.107153672262315	1
280	1	[392]	1	1	0.59652268482203	0.403477315177969	12	0	14	9	1	0	0.193045369644061	0
280	1	[562.7999999998137]	1	0	0.417898507980736	0.582101492019263	12	1	15	9	1	0	0.164202984038527	1
280	1	[358.5]	1	0	0.469204418914398	0.530795581085601	17	0	16	9	1	0	0.061591162171203	1
280	1	[490.6000000005588]	1	0	0.488355594816823	0.511644405183177	16	1	17	9	1	0	0.023288810366354	1
280	1	[440.90000000037253]	1	0	0.458458993152987	0.541541006847012	18	0	18	9	1	0	0.083082013694025	1
280	1	[467.29999999981374]	1	0	0.460441218930268	0.539558781069731	16	1	19	9	1	0	0.079117562139463	1
280	1	[286]	1	0	0.462907143593425	0.537092856406574	17	1	20	9	1	0	0.074185712813149	1
280	1	[327.30000000074506]	1	1	0.550371739047761	0.449628260952238	83	0	21	9	1	0	0.100743478095523	0
280	1	[393.29999999981374]	1	0	0.423058654134891	0.576941345865108	17	1	22	9	1	0	0.153882691730217	1
280	1	[603.7999999998137]	1	0	0.494573715791862	0.505426284208137	14	0	23	9	1	0	0.010852568416275	1
280	1	[533.0999999996275]	1	0	0.442852385560346	0.557147614439653	21	1	24	9	1	0	0.114295228879307	1
280	1	[352.29999999981374]	1	1	0.589960527154283	0.410039472845716	16	0	25	9	1	0	0.179921054308567	0
280	1	[752.2999999998137]	2	1	0.505971693635549	0.49402830636445	29	1	1	10	0	0	0.0119433872710989	1
280	1	[363.59999999962747]	2	0	0.499125841130799	0.5008741588692	26	0	2	10	0	0	0.00174831773840095	0
280	0	[319.80000000074506]	2	1	0.578737357031001	0.421262642968998	26	0	3	10	0	0	0.157474714062003	0
280	1	[346.29999999981374]	2	1	0.546179416888198	0.453820583111801	20	1	4	10	0	0	0.092358833776397	1
280	1	[434.20000000018626]	2	0	0.412309248753415	0.587690751246584	22	0	5	10	0	0	0.175381502493169	0
280	1	[783.7999999998137]	2	0	0.451614867783925	0.548385132216074	17	0	6	10	0	0	0.096770264432149	0
280	1	[445.29999999981374]	2	0	0.418566676422638	0.581433323577361	17	0	7	10	0	0	0.162866647154723	0
280	1	[509]	2	1	0.552164032225828	0.447835967774171	17	1	8	10	0	0	0.104328064451657	1
280	1	[598.3000000007451]	2	1	0.578571944085955	0.421428055914044	22	1	9	10	0	0	0.157143888171911	1
280	1	[391.40000000037253]	2	1	0.566150938252095	0.433849061747904	21	1	10	10	0	0	0.132301876504191	1
280	1	[542.5999999996275]	2	0	0.498014659927609	0.50198534007239	16	0	11	10	0	0	0.00397068014478102	0
280	0	[592.0999999996275,654]	2	0	0.428624249759985	0.571375750240014	76	1	12	10	0	0	0.142751500480029	1
280	1	[473]	2	0	0.484597568737142	0.515402431262857	28	0	13	10	0	0	0.030804862525715	0
280	1	[292.5]	2	1	0.500016123888091	0.499983876111908	82	1	14	10	0	0	3.22477761830475e-05	1
280	1	[446.8999999994412]	2	0	0.4607025058938	0.539297494106199	21	0	15	10	0	0	0.078594988212399	0
280	1	[325.80000000074506,506.70000000018626]	2	1	0.584902539952344	0.415097460047655	73	1	16	10	0	0	0.169805079904689	1
280	1	[318.5,609.7000000001863]	2	1	0.577505296670592	0.422494703329407	25	1	17	10	0	0	0.155010593341185	1
280	1	[308.90000000037253]	2	1	0.509847605508878	0.490152394491121	83	1	18	10	0	0	0.019695211017757	1
280	1	[438.3999999994412]	2	0	0.469500332265981	0.530499667734018	21	0	19	10	0	0	0.060999335468037	0
280	1	[424.20000000018626]	2	0	0.427558755051488	0.572441244948512	22	0	20	10	0	0	0.144882489897024	0
280	0	[512.5]	2	0	0.423423526276376	0.576576473723623	20	1	21	10	0	0	0.153152947447247	1
280	1	[378.1000000005588,537.9000000003725]	2	1	0.533858540931142	0.466141459068857	26	1	22	10	0	0	0.067717081862285	1
280	1	[306.5,494.3999999994412]	2	1	0.579901068189406	0.420098931810593	26	1	23	10	0	0	0.159802136378813	1
280	1	[328.79999999981374,472.5]	2	0	0.423020453787577	0.576979546212422	79	0	24	10	0	0	0.153959092424845	0
280	1	[631.2000000001863]	2	0	0.454719394186716	0.545280605813283	18	0	25	10	0	0	0.090561211626567	0
280	1	[281]	2	0	0.437878730856075	0.562121269143924	68	1	1	11	1	1	0.124242538287849	1
280	1	[394.70000000018626]	2	0	0.419883562422847	0.580116437577152	68	1	2	11	1	1	0.160232875154305	1
280	1	[632.7000000001863]	2	0	0.439884295501618	0.560115704498381	68	1	3	11	1	1	0.120231408996763	1
280	1	[429.79999999981374]	2	1	0.559530720701572	0.440469279298428	25	0	4	11	1	1	0.119061441403144	0
280	1	[314.80000000074506]	2	0	0.422042665168011	0.577957334831989	72	1	5	11	1	1	0.155914669663978	1
280	1	[358.29999999981374]	2	0	0.406055589744058	0.593944410255941	73	1	6	11	1	1	0.187888820511883	1
280	1	[327.1000000005588]	2	0	0.405920579692873	0.594079420307126	72	1	7	11	1	1	0.188158840614253	1
280	1	[595.7000000001863]	2	0	0.432151106879979	0.56784889312002	74	1	8	11	1	1	0.135697786240041	1
280	0	[443.1000000005588]	2	0	0.427145480833353	0.572854519166646	16	0	9	11	1	1	0.145709038333293	0
280	1	[349.09999999962747]	2	1	0.526081483306922	0.473918516693077	17	0	10	11	1	1	0.052162966613845	0
280	1	[554.7999999998137]	2	0	0.407435728083483	0.592564271916516	72	1	11	11	1	1	0.185128543833033	1
280	0	[663.7999999998137]	2	1	0.523477642882733	0.476522357117266	23	1	12	11	1	1	0.046955285765467	1
280	1	[559.7999999998137]	2	1	0.595973895240285	0.404026104759715	14	0	13	11	1	1	0.19194779048057	0
280	1	[297.20000000018626]	2	0	0.497403099431768	0.502596900568231	69	1	14	11	1	1	0.00519380113646301	1
280	1	[469.29999999981374]	2	0	0.424588336893313	0.575411663106686	29	1	15	11	1	1	0.150823326213373	1
280	0	[666.1000000005588]	2	1	0.553848496752183	0.446151503247816	69	1	16	11	1	1	0.107696993504367	1
280	1	[392.6000000005588]	2	0	0.496045187245255	0.503954812754745	67	1	17	11	1	1	0.00790962550948998	1
280	0	[402.40000000037253]	2	1	0.580841752272368	0.419158247727631	64	1	18	11	1	1	0.161683504544737	1
280	1	[747.7999999998137]	2	1	0.534479110097249	0.465520889902751	22	0	19	11	1	1	0.068958220194498	0
280	1	[338.40000000037253]	2	1	0.503152091737459	0.49684790826254	82	0	20	11	1	1	0.00630418347491901	0
280	1	[196.6000000005588]	2	1	0.542365863739035	0.457634136260964	73	0	21	11	1	1	0.084731727478071	0
280	1	[351]	2	1	0.522985677360511	0.477014322639488	24	0	22	11	1	1	0.045971354721023	0
280	1	[262.1000000005588]	2	1	0.567917191772197	0.432082808227802	23	0	23	11	1	1	0.135834383544395	0
280	0	[347.79999999981374]	2	1	0.587633567646493	0.412366432353506	86	1	24	11	1	1	0.175267135292987	1
280	1	[346.79999999981374]	2	1	0.556979559191589	0.44302044080841	77	0	25	11	1	1	0.113959118383179	0
280	1	[475.59999999962747]	2	0	0.436072919237921	0.563927080762078	74	0	1	12	0	1	0.127854161524157	0
280	0	[275.20000000018626]	2	1	0.525883562793135	0.474116437206864	12	0	2	12	0	1	0.0517671255862709	0
280	1	[374.90000000037253]	2	1	0.57671807829725	0.423281921702749	86	1	3	12	0	1	0.153436156594501	1
280	1	[389.40000000037253]	2	1	0.578704038977913	0.421295961022086	85	1	4	12	0	1	0.157408077955827	1
280	1	[433]	2	0	0.41166731197168	0.588332688028319	85	0	5	12	0	1	0.176665376056639	0
280	1	[362.29999999981374]	2	1	0.511813995736009	0.48818600426399	83	1	6	12	0	1	0.023627991472019	1
280	1	[494.70000000018626]	2	0	0.460414977059133	0.539585022940867	81	0	7	12	0	1	0.079170045881734	0
280	1	[752.5]	2	0	0.430617115412062	0.569382884587937	50	0	8	12	0	1	0.138765769175875	0
280	0	[334.69999999925494]	2	0	0.401464841862458	0.598535158137541	83	1	9	12	0	1	0.197070316275083	1
280	0	[480]	2	1	0.536877943003258	0.463122056996741	78	0	10	12	0	1	0.0737558860065169	0
280	1	[497.40000000037253]	2	0	0.48475230360068	0.515247696399319	76	0	11	12	0	1	0.030495392798639	0
280	0	[548.6000000005588]	2	0	0.417701490773387	0.582298509226613	83	1	12	12	0	1	0.164597018453226	1
280	1	[423.59999999962747]	2	0	0.41992201538086	0.580077984619139	79	0	13	12	0	1	0.160155969238279	0
280	0	[385.20000000018626]	2	1	0.532112542372038	0.467887457627961	80	0	14	12	0	1	0.064225084744077	0
280	1	[388.09999999962747]	2	0	0.451974259513503	0.548025740486497	85	0	15	12	0	1	0.096051480972994	0
280	1	[497.20000000018626]	2	1	0.509240791227966	0.490759208772033	79	1	16	12	0	1	0.018481582455933	1
280	1	[383.90000000037253]	2	0	0.495643775467125	0.504356224532874	14	0	17	12	0	1	0.00871244906574897	0
280	1	[391.30000000074506]	2	1	0.549749846578458	0.450250153421541	84	1	18	12	0	1	0.099499693156917	1
280	1	[375.8999999994412]	2	1	0.527421507878106	0.472578492121893	77	1	19	12	0	1	0.054843015756213	1
280	0	[657.5999999996275]	2	1	0.597710725818857	0.402289274181142	83	0	20	12	0	1	0.195421451637715	0
280	1	[361.20000000018626]	2	1	0.596610382723802	0.403389617276197	76	1	21	12	0	1	0.193220765447605	1
280	0	[161.1000000005588]	2	0	0.472896286469119	0.52710371353088	82	1	22	12	0	1	0.054207427061761	1
280	1	[324.29999999981374]	2	0	0.400017133996294	0.599982866003705	82	0	23	12	0	1	0.199965732007411	0
280	0	[418.6000000005588]	2	0	0.405057200342049	0.59494279965795	84	1	24	12	0	1	0.189885599315901	1
280	1	[524.8999999994412]	2	1	0.547933154846405	0.452066845153594	81	1	25	12	0	1	0.095866309692811	1
