ID	choice	rt	choice_cond	state	contrast_left	contrast_right	mu	correct	trials	blocks	contrast	congruence	con_diff_choice	ecoperf
255	1	[836.9000000059605]	2	1	0.508102490939978	0.491897509060021	63	0	1	1	1	1	0.0162049818799569	0
255	1	[427]	2	0	0.419619379436841	0.580380620563158	87	1	2	1	1	1	0.160761241126317	1
255	0	[365.3999999985099]	2	1	0.541676775189731	0.458323224810268	97	1	3	1	1	1	0.083353550379463	1
255	1	[681]	2	0	0.484786659549978	0.515213340450021	91	1	4	1	1	1	0.030426680900043	1
255	0	[414.19999999552965]	2	1	0.530592381857763	0.469407618142236	92	1	5	1	1	1	0.061184763715527	1
255	1	[427.80000000447035]	2	0	0.422280164730364	0.577719835269635	85	1	6	1	1	1	0.155439670539271	1
255	1	[642]	2	0	0.419920550969186	0.580079449030813	90	1	7	1	1	1	0.160158898061627	1
255	1	[668.6000000014901]	2	0	0.452463167663311	0.547536832336688	89	1	8	1	1	1	0.095073664673377	1
255	0	[581]	2	1	0.56299713880807	0.437002861191929	95	1	9	1	1	1	0.125994277616141	1
255	1	[401.19999999552965]	2	0	0.400760501116998	0.599239498883001	88	1	10	1	1	1	0.198478997766003	1
255	0	[455.40000000596046]	2	1	0.57166717163058	0.428332828369419	91	1	11	1	1	1	0.143334343261161	1
255	0	[756.3999999985099]	2	1	0.526321362978346	0.473678637021653	100	1	12	1	1	1	0.0526427259566929	1
255	1	[451.29999999701977]	2	0	0.424547416341411	0.575452583658588	94	1	13	1	1	1	0.150905167317177	1
255	0	[553.2000000029802]	2	1	0.545494910371501	0.454505089628498	90	1	14	1	1	1	0.090989820743003	1
255	0	[632.5]	2	1	0.502054146236047	0.497945853763952	91	1	15	1	1	1	0.00410829247209504	1
255	1	[635]	2	0	0.474935609714168	0.525064390285831	87	1	16	1	1	1	0.050128780571663	1
255	0	[468]	2	1	0.565381551566768	0.434618448433231	85	1	17	1	1	1	0.130763103133537	1
255	0	[758]	2	1	0.523306674733612	0.476693325266387	90	1	18	1	1	1	0.046613349467225	1
255	1	[623.7000000029802]	2	0	0.435763046484466	0.564236953515533	95	1	19	1	1	1	0.128473907031067	1
255	0	[465.5]	2	1	0.589577240591812	0.410422759408187	95	0	20	1	1	1	0.179154481183625	1
255	1	[864.5]	2	0	0.480657578717703	0.519342421282296	94	0	21	1	1	1	0.038684842564593	1
255	1	[720.5]	2	0	0.497764552306168	0.502235447693832	96	0	22	1	1	1	0.00447089538766399	1
255	0	[669]	2	1	0.521758943659958	0.478241056340041	92	0	23	1	1	1	0.043517887319917	1
255	1	[421.3999999985099]	2	0	0.403127475948391	0.596872524051608	93	0	24	1	1	1	0.193745048103217	1
255	0	[853.3000000044703]	2	1	0.527956249179022	0.472043750820977	95	0	25	1	1	1	0.055912498358045	1
255	1	[450.70000000298023]	1	0	0.410750401694609	0.58924959830539	91	1	1	2	1	1	0.178499196610781	1
255	0	[440]	1	1	0.574128245992243	0.425871754007756	89	1	2	2	1	1	0.148256491984487	1
255	0	[428.80000000447035]	1	1	0.518125941277907	0.481874058722092	93	1	3	2	1	1	0.036251882555815	1
255	1	[403.8999999985099]	1	0	0.415869089851578	0.584130910148421	86	1	4	2	1	1	0.168261820296843	1
255	1	[437.1000000014901]	1	0	0.448737770050542	0.551262229949457	93	1	5	2	1	1	0.102524459898915	1
255	1	[439.09999999403954]	1	0	0.413899534559123	0.586100465440876	81	0	6	2	1	1	0.172200930881753	1
255	0	[596.8999999985099]	1	1	0.517347734571529	0.48265226542847	40	0	7	2	1	1	0.034695469143059	1
255	1	[488.09999999403954]	1	1	0.527200463896985	0.472799536103014	62	0	8	2	1	1	0.054400927793971	0
255	0	[448.70000000298023]	1	1	0.549698568458798	0.450301431541201	78	1	9	2	1	1	0.0993971369175971	1
255	0	[435.5]	1	1	0.522561931766223	0.477438068233776	80	1	10	2	1	1	0.045123863532447	1
255	1	[439.30000000447035]	1	0	0.44193904612426	0.558060953875739	88	1	11	2	1	1	0.116121907751479	1
255	1	[402]	1	0	0.444593574140149	0.55540642585985	70	0	12	2	1	1	0.110812851719701	1
255	0	[710.5999999940395]	1	1	0.542553585283544	0.457446414716456	79	0	13	2	1	1	0.0851071705670881	1
255	0	[712.8999999985099]	1	1	0.553727788817962	0.446272211182037	87	1	14	2	1	1	0.107455577635925	1
255	1	[508.69999999552965]	1	0	0.409439492100284	0.590560507899715	88	1	15	2	1	1	0.181121015799431	1
255	0	[883.8000000044703]	1	1	0.507628057744265	0.492371942255734	86	1	16	2	1	1	0.015256115488531	1
255	0	[450.5]	1	1	0.568942003924217	0.431057996075782	63	0	17	2	1	1	0.137884007848435	1
255	0	[468]	1	1	0.5907490884732	0.4092509115268	70	1	18	2	1	1	0.1814981769464	1
255	1	[501.5]	1	0	0.475908823055068	0.524091176944931	72	1	19	2	1	1	0.048182353889863	1
255	1	[807.7999999970198]	1	1	0.513400948434115	0.486599051565884	78	1	20	2	1	1	0.026801896868231	0
255	0	[689.6999999955297]	1	0	0.489647293341631	0.510352706658368	79	1	21	2	1	1	0.020705413316737	0
255	0	[570.1999999955297]	1	1	0.572728544339441	0.427271455660558	86	1	22	2	1	1	0.145457088678883	1
255	1	[930.5]	1	0	0.473191167280139	0.52680883271986	69	0	23	2	1	1	0.053617665439721	1
255	1	[496]	1	0	0.484025469735921	0.515974530264078	82	0	24	2	1	1	0.031949060528157	1
255	1	[473.6000000014901]	1	0	0.406949368799241	0.593050631200758	90	0	25	2	1	1	0.186101262401517	1
255	1	[690.3999999985099]	1	0	0.458033260955463	0.541966739044536	69	0	1	3	0	1	0.083933478089073	0
255	1	[398.6000000014901]	1	1	0.578978357548656	0.421021642451343	80	1	2	3	0	1	0.157956715097313	1
255	1	[398.8999999985099]	1	1	0.597973557023249	0.40202644297675	66	0	3	3	0	1	0.195947114046499	1
255	0	[356.1000000014901]	1	1	0.519406032622892	0.480593967377107	72	0	4	3	0	1	0.038812065245785	0
255	1	[427.30000000447035]	1	1	0.500537965167843	0.499462034832156	81	1	5	3	0	1	0.00107593033568698	1
255	1	[479.70000000298023]	1	1	0.58639789735332	0.413602102646679	51	0	6	3	0	1	0.172795794706641	1
255	0	[518.2999999970198]	1	0	0.405780122545792	0.594219877454207	55	1	7	3	0	1	0.188439754908415	1
255	0	[754.3999999985099]	1	0	0.47062790874323	0.529372091256769	44	0	8	3	0	1	0.058744182513539	1
255	1	[403.80000000447035]	1	0	0.441613564664518	0.558386435335481	54	0	9	3	0	1	0.116772870670963	0
255	0	[472.5]	1	0	0.431553227387439	0.56844677261256	57	1	10	3	0	1	0.136893545225121	1
255	0	[492.8999999985099]	1	0	0.416380358658797	0.583619641341202	60	1	11	3	0	1	0.167239282682405	1
255	0	[601.7999999970198]	1	0	0.477789756565066	0.522210243434933	56	0	12	3	0	1	0.044420486869867	1
255	0	[471.29999999701977]	1	0	0.402977048295041	0.597022951704959	61	1	13	3	0	1	0.194045903409918	1
255	1	[460.20000000298023]	1	1	0.599594142953929	0.400405857046071	62	1	14	3	0	1	0.199188285907858	1
255	1	[459.59999999403954]	1	1	0.51374265971955	0.486257340280449	53	0	15	3	0	1	0.027485319439101	1
255	1	[627.2000000029802]	1	1	0.589213147467435	0.410786852532564	66	1	16	3	0	1	0.178426294934871	1
255	1	[482.1000000014901]	1	1	0.573814552823683	0.426185447176316	70	1	17	3	0	1	0.147629105647367	1
255	1	[547.0999999940395]	1	1	0.525048471639872	0.474951528360127	72	1	18	3	0	1	0.050096943279745	1
255	0	[510.8999999985099]	1	0	0.459374385098493	0.540625614901506	72	1	19	3	0	1	0.081251229803013	1
255	0	[728]	1	0	0.479013015220299	0.5209869847797	73	0	20	3	0	1	0.041973969559401	1
255	1	[423.29999999701977]	1	1	0.523368113041357	0.476631886958642	58	0	21	3	0	1	0.046736226082715	1
255	1	[397.69999999552965]	1	1	0.522780785512915	0.477219214487084	72	1	22	3	0	1	0.045561571025831	1
255	0	[447]	1	0	0.418666639099369	0.58133336090063	74	1	23	3	0	1	0.162666721801261	1
255	0	[461.79999999701977]	1	0	0.481694409471667	0.518305590528332	58	0	24	3	0	1	0.0366111810566651	1
255	0	[454.70000000298023]	1	0	0.449279683865814	0.550720316134185	61	1	25	3	0	1	0.101440632268371	1
255	0	[581.5]	2	0	0.497153760354357	0.502846239645642	64	1	1	4	0	0	0.00569247929128502	1
255	1	[482.70000000298023]	2	0	0.45284183959241	0.547158160407589	57	0	2	4	0	0	0.094316320815179	0
255	0	[421.19999999552965]	2	1	0.569641790432902	0.430358209567097	43	0	3	4	0	0	0.139283580865805	0
255	0	[775.8999999985099]	2	0	0.471434909283121	0.528565090716879	38	1	4	4	0	0	0.057130181433758	1
255	0	[592.1000000014901]	2	0	0.43622156792222	0.563778432077779	36	1	5	4	0	0	0.127556864155559	1
255	1	[405.8999999985099]	2	1	0.572018364920266	0.427981635079733	32	1	6	4	0	0	0.144036729840533	1
255	1	[443.6000000014901]	2	1	0.553621595242815	0.446378404757184	29	1	7	4	0	0	0.107243190485631	1
255	0	[420.70000000298023]	2	0	0.401247622918386	0.598752377081613	27	1	8	4	0	0	0.197504754163227	1
255	0	[557]	2	0	0.468505300822142	0.531494699177857	31	1	9	4	0	0	0.062989398355715	1
255	0	[432.20000000298023]	2	0	0.445149062572945	0.554850937427054	21	1	10	4	0	0	0.109701874854109	1
255	1	[442.3999999985099]	2	1	0.560166278798303	0.439833721201696	20	1	11	4	0	0	0.120332557596607	1
255	0	[827.5]	2	0	0.482894793043655	0.517105206956344	21	1	12	4	0	0	0.034210413912689	1
255	0	[434.79999999701977]	2	0	0.435081137343807	0.564918862656192	17	1	13	4	0	0	0.129837725312385	1
255	1	[470]	2	1	0.546549129244705	0.453450870755295	18	1	14	4	0	0	0.09309825848941	1
255	1	[451.20000000298023]	2	1	0.542738738821569	0.45726126117843	18	1	15	4	0	0	0.085477477643139	1
255	1	[429.70000000298023]	2	1	0.564245840824701	0.435754159175298	16	1	16	4	0	0	0.128491681649403	1
255	1	[475]	2	1	0.580732584360141	0.419267415639858	15	1	17	4	0	0	0.161465168720283	1
255	0	[548.2999999970198]	2	0	0.458188271435706	0.541811728564293	17	1	18	4	0	0	0.083623457128587	1
255	1	[500,843.1000000014901]	2	1	0.51942806746354	0.480571932536459	7	1	19	4	0	0	0.038856134927081	1
255	0	[686.0999999940395]	2	0	0.481146638605823	0.518853361394176	6	1	20	4	0	0	0.037706722788353	1
255	1	[443.3999999985099,764.5999999940395]	2	1	0.579085614739927	0.420914385260072	6	1	21	4	0	0	0.158171229479855	1
255	1	[421.80000000447035]	2	1	0.561900360684155	0.438099639315844	4	1	22	4	0	0	0.123800721368311	1
255	1	[353.69999999552965]	2	1	0.557062563583559	0.442937436416441	5	1	23	4	0	0	0.114125127167118	1
255	0	[365.79999999701977]	2	0	0.432343258180103	0.567656741819896	2	0	24	4	0	0	0.135313483639793	1
255	0	[311.70000000298023]	2	0	0.471674135022146	0.528325864977853	1	0	25	4	0	0	0.0566517299557071	1
255	1	[607.5]	3	0	0.110740504857572	0.889259495142427	71	0	1	5	0	1	0.778518990284855	0
255	0	[369.69999999552965]	3	0	0.0514787276674676	0.948521272332532	77	1	2	5	0	1	0.897042544665064	1
255	1	[358.6000000014901]	3	1	0.876941941506648	0.123058058493351	73	1	3	5	0	1	0.753883883013297	1
255	0	[449.70000000298023]	3	0	0.137546916640563	0.862453083359436	71	0	4	5	0	1	0.724906166718873	1
255	0	[336.3999999985099]	3	0	0.064704197703905	0.935295802296095	77	1	5	5	0	1	0.87059160459219	1
255	0	[404.59999999403954]	3	0	0.137541593873371	0.862458406126628	76	1	6	5	0	1	0.724916812253257	1
255	1	[392]	3	1	0.876089769949176	0.123910230050823	60	0	7	5	0	1	0.752179539898353	1
255	1	[383.30000000447035]	3	1	0.864149695956444	0.135850304043555	75	1	8	5	0	1	0.728299391912889	1
255	1	[327.29999999701977]	3	1	0.87010270755375	0.129897292446249	73	1	9	5	0	1	0.740205415107501	1
255	0	[450.80000000447035]	3	0	0.145874963805398	0.854125036194601	80	1	10	5	0	1	0.708250072389203	1
255	1	[377]	3	0	0.0596426948281219	0.940357305171878	76	1	11	5	0	1	0.880714610343756	0
255	0	[382.30000000447035]	3	0	0.0828726735884486	0.917127326411551	83	1	12	5	0	1	0.834254652823102	1
255	0	[416.20000000298023]	3	0	0.0519524846443701	0.948047515355629	81	1	13	5	0	1	0.896095030711259	1
255	0	[486.20000000298023]	3	0	0.138210078377148	0.861789921622851	80	0	14	5	0	1	0.723579843245703	1
255	1	[435.5]	3	1	0.871368000824627	0.128631999175372	68	0	15	5	0	1	0.742736001649255	1
255	1	[367]	3	1	0.938530614495157	0.0614693855048421	79	1	16	5	0	1	0.877061228990315	1
255	1	[414.80000000447035]	3	1	0.906695643309776	0.0933043566902231	69	0	17	5	0	1	0.813391286619553	1
255	1	[497.1000000014901]	3	1	0.942116255701344	0.0578837442986552	73	1	18	5	0	1	0.884232511402689	1
255	1	[438.69999999552965]	3	1	0.851987153286461	0.148012846713538	83	1	19	5	0	1	0.703974306572923	1
255	0	[865.6000000014901]	3	0	0.136215128863573	0.863784871136426	80	1	20	5	0	1	0.727569742272853	1
255	0	[392.29999999701977]	3	1	0.860899385915553	0.139100614084446	73	0	21	5	0	1	0.721798771831107	0
255	0	[615.6000000014901]	3	0	0.135574664001002	0.864425335998997	76	0	22	5	0	1	0.728850671997995	1
255	1	[382.3999999985099]	3	1	0.873379395947056	0.126620604052943	70	0	23	5	0	1	0.746758791894113	1
255	1	[367.70000000298023]	3	1	0.895549280049178	0.104450719950821	86	1	24	5	0	1	0.791098560098357	1
255	1	[357.29999999701977]	3	1	0.931003135447979	0.0689968645520207	79	1	25	5	0	1	0.862006270895958	1
255	0	[483.70000000298023,900.3999999985099]	3	1	0.891739977868744	0.108260022131255	26	1	1	6	1	0	0.783479955737489	1
255	0	[906.6000000014901]	3	1	0.872620293802005	0.127379706197994	23	1	2	6	1	0	0.745240587604011	1
255	1	[398.79999999701977]	3	0	0.0565347345328366	0.943465265467163	19	1	3	6	1	0	0.886930530934326	1
255	0	[385.30000000447035]	3	1	0.918221873415861	0.0817781265841385	29	0	4	6	1	0	0.836443746831723	1
255	1	[348.79999999701977]	3	0	0.0772180197619941	0.922781980238006	36	0	5	6	1	0	0.845563960476012	1
255	0	[436]	3	1	0.903124015637028	0.0968759843629714	32	1	6	6	1	0	0.806248031274057	1
255	1	[543.3999999985099]	3	0	0.131116736586051	0.868883263413948	28	1	7	6	1	0	0.737766526827897	1
255	0	[395.3999999985099]	3	1	0.851303735887948	0.148696264112051	27	1	8	6	1	0	0.702607471775897	1
255	1	[521.2999999970198]	3	1	0.891583068973937	0.108416931026062	23	0	9	6	1	0	0.783166137947875	0
255	1	[408.59999999403954]	3	0	0.108114470307669	0.89188552969233	21	1	10	6	1	0	0.783771059384661	1
255	1	[476.29999999701977,846.5]	3	0	0.143843251845081	0.856156748154918	20	0	11	6	1	0	0.712313496309837	1
255	0	[400.3999999985099]	3	1	0.926677651736052	0.0733223482639472	30	0	12	6	1	0	0.853355303472105	1
255	0	[346.5]	3	1	0.85458156167531	0.145418438324689	20	1	13	6	1	0	0.709163123350621	1
255	1	[439.79999999701977]	3	0	0.0563869342048288	0.943613065795171	23	1	14	6	1	0	0.887226131590342	1
255	0	[552.8999999985099]	3	1	0.93627589676742	0.0637241032325791	19	1	15	6	1	0	0.872551793534841	1
255	1	[498.3999999985099]	3	0	0.0830267857775549	0.916973214222445	22	0	16	6	1	0	0.83394642844489	1
255	0	[587.3000000044703]	3	1	0.866494114809117	0.133505885190882	28	0	17	6	1	0	0.732988229618235	1
255	1	[435]	3	0	0.0955149893738857	0.904485010626114	28	1	18	6	1	0	0.808970021252228	1
255	0	[414]	3	1	0.855915585979864	0.144084414020135	22	1	19	6	1	0	0.711831171959729	1
255	1	[363.70000000298023]	3	0	0.127466001929543	0.872533998070457	17	1	20	6	1	0	0.745067996140914	1
255	1	[377.70000000298023]	3	0	0.0540686395711635	0.945931360428836	16	1	21	6	1	0	0.891862720857672	1
255	1	[404.3999999985099]	3	0	0.107656876725393	0.892343123274606	21	0	22	6	1	0	0.784686246549213	1
255	0	[370.5]	3	1	0.906457794153547	0.0935422058464524	16	1	23	6	1	0	0.812915588307095	1
255	1	[370]	3	0	0.0648703711579168	0.935129628842083	16	1	24	6	1	0	0.870259257684166	1
255	0	[383.90000000596046]	3	1	0.945811397531118	0.0541886024688818	20	0	25	6	1	0	0.891622795062236	1
255	1	[710.1000000014901]	1	0	0.411392203689977	0.588607796310022	29	1	1	7	1	0	0.177215592620045	1
255	1	[410.1000000014901]	1	0	0.408309051656043	0.591690948343956	25	0	2	7	1	0	0.183381896687913	1
255	1	[399.3999999985099]	1	0	0.446049350386323	0.553950649613676	25	1	3	7	1	0	0.107901299227353	1
255	1	[761.3000000044703]	1	0	0.463281771664317	0.536718228335682	21	1	4	7	1	0	0.0734364566713649	1
255	0	[421.40000000596046]	1	1	0.531073407325535	0.468926592674464	18	1	5	7	1	0	0.062146814651071	1
255	0	[507.70000000298023]	1	1	0.578179410056818	0.421820589943181	13	1	6	7	1	0	0.156358820113637	1
255	0	[486.3999999985099]	1	1	0.530429132935034	0.469570867064965	24	1	7	7	1	0	0.060858265870069	1
255	1	[529.1999999955297]	1	0	0.442999804402233	0.557000195597766	19	1	8	7	1	0	0.114000391195533	1
255	1	[845.3000000044703]	1	0	0.427512471639204	0.572487528360795	22	0	9	7	1	0	0.144975056721591	1
255	1	[438.79999999701977]	1	0	0.419766022026852	0.580233977973147	15	1	10	7	1	0	0.160467955946295	1
255	0	[659.8000000044703]	1	1	0.561281572658851	0.438718427341148	23	1	11	7	1	0	0.122563145317703	1
255	0	[668.5]	1	1	0.508153816808653	0.491846183191346	15	1	12	7	1	0	0.016307633617307	1
255	0	[557.6999999955297]	1	1	0.56648538271207	0.433514617287929	22	0	13	7	1	0	0.132970765424141	1
255	0	[575.1999999955297]	1	1	0.530431556098429	0.469568443901571	20	1	14	7	1	0	0.060863112196858	1
255	0	[421.20000000298023]	1	1	0.58824908762451	0.411750912375489	21	1	15	7	1	0	0.176498175249021	1
255	0	[437.20000000298023]	1	1	0.597165505061871	0.402834494938128	20	0	16	7	1	0	0.194331010123743	1
255	1	[855.9000000059605]	1	0	0.456524807674687	0.543475192325312	19	1	17	7	1	0	0.086950384650625	1
255	1	[553.6999999955297]	1	0	0.443321168745155	0.556678831254844	15	1	18	7	1	0	0.113357662509689	1
255	1	[478.69999999552965]	1	0	0.431113287152578	0.568886712847422	17	0	19	7	1	0	0.137773425694844	1
255	1	[678.2999999970198]	1	0	0.439925697793152	0.560074302206847	16	1	20	7	1	0	0.120148604413695	1
255	1	[420.8999999985099]	1	0	0.436079388382356	0.563920611617644	20	1	21	7	1	0	0.127841223235288	1
255	0	[427.5]	1	1	0.579791390438413	0.420208609561586	12	1	22	7	1	0	0.159582780876827	1
255	0	[457.6000000014901]	1	1	0.598441069391805	0.401558930608195	16	0	23	7	1	0	0.19688213878361	1
255	0	[555.8999999985099]	1	0	0.472163610876303	0.527836389123696	16	0	24	7	1	0	0.055672778247393	0
255	0	[491]	1	1	0.517101856153829	0.48289814384617	28	0	25	7	1	0	0.034203712307659	1
255	0	[548.6000000014901]	1	1	0.525756549699558	0.474243450300441	36	0	1	8	0	0	0.051513099399117	0
255	0	[446.5]	1	0	0.401740036534944	0.598259963465055	30	1	2	8	0	0	0.196519926930111	1
255	1	[787.7999999970198,999.8999999985099]	1	1	0.555621299704999	0.444378700295001	40	0	3	8	0	0	0.111242599409998	1
255	1	[426.69999999552965]	1	1	0.58207544498347	0.417924555016529	40	1	4	8	0	0	0.164150889966941	1
255	0	[537.2999999970198]	1	0	0.440795769731775	0.559204230268225	28	1	5	8	0	0	0.11840846053645	1
255	0	[457.3999999985099]	1	0	0.492580191392718	0.507419808607281	34	0	6	8	0	0	0.014839617214563	1
255	0	[437]	1	0	0.436609814727565	0.563390185272435	36	1	7	8	0	0	0.12678037054487	1
255	1	[540.7999999970198]	1	1	0.542003141122169	0.45799685887783	31	1	8	8	0	0	0.084006282244339	1
255	0	[449.70000000298023]	1	0	0.473471957918303	0.526528042081696	27	1	9	8	0	0	0.053056084163393	1
255	0	[422.40000000596046]	1	0	0.489952638085844	0.510047361914155	25	1	10	8	0	0	0.020094723828311	1
255	1	[468.09999999403954]	1	1	0.589394196799643	0.410605803200356	24	0	11	8	0	0	0.178788393599287	1
255	1	[715.6000000014901]	1	1	0.51776695474509	0.482233045254909	21	1	12	8	0	0	0.035533909490181	1
255	1	[408.8999999985099]	1	1	0.572894256712106	0.427105743287893	20	0	13	8	0	0	0.145788513424213	1
255	1	[491.1000000014901]	1	0	0.497668962828201	0.502331037171798	20	1	14	8	0	0	0.00466207434359694	0
255	0	[490.79999999701977]	1	0	0.414666824281359	0.58533317571864	21	1	15	8	0	0	0.170666351437281	1
255	1	[489.6000000014901]	1	1	0.519750832628744	0.480249167371255	20	1	16	8	0	0	0.039501665257489	1
255	1	[631.6000000014901]	1	1	0.579421101339273	0.420578898660726	19	1	17	8	0	0	0.158842202678547	1
255	0	[523.2000000029802]	1	0	0.429886874061114	0.570113125938886	19	1	18	8	0	0	0.140226251877772	1
255	1	[520.1000000014901]	1	1	0.588539974646492	0.411460025353507	19	1	19	8	0	0	0.177079949292985	1
255	1	[409.1000000014901]	1	1	0.570382238646337	0.429617761353662	14	0	20	8	0	0	0.140764477292675	1
255	1	[456.3999999985099]	1	1	0.531181014764089	0.46881898523591	19	1	21	8	0	0	0.062362029528179	1
255	0	[478.80000000447035]	1	0	0.447684091419294	0.552315908580706	17	0	22	8	0	0	0.104631817161412	1
255	0	[462.40000000596046]	1	0	0.446691492306004	0.553308507693996	20	1	23	8	0	0	0.106617015387992	1
255	0	[440.30000000447035]	1	1	0.569566401816436	0.430433598183563	15	0	24	8	0	0	0.139132803632873	0
255	0	[451.20000000298023]	1	0	0.451294604258278	0.548705395741722	30	0	25	8	0	0	0.0974107914834439	1
255	1	[718]	3	0	0.0555973342447673	0.944402665755232	31	0	1	9	0	0	0.888805331510465	0
255	1	[421.8999999985099]	3	1	0.872581486388811	0.127418513611188	25	1	2	9	0	0	0.745162972777623	1
255	0	[415.70000000298023]	3	0	0.100078376739113	0.899921623260886	19	1	3	9	0	0	0.799843246521773	1
255	1	[377.09999999403954]	3	1	0.92677723753454	0.0732227624654598	20	0	4	9	0	0	0.85355447506908	1
255	1	[363.29999999701977]	3	1	0.940045674249188	0.0599543257508111	16	1	5	9	0	0	0.880091348498377	1
255	0	[371.6000000014901]	3	0	0.148087308978302	0.851912691021697	26	0	6	9	0	0	0.703825382043395	1
255	0	[434.1000000014901]	3	0	0.132271931274521	0.867728068725478	21	1	7	9	0	0	0.735456137450957	1
255	0	[398.3999999985099]	3	0	0.126563357446752	0.873436642553247	17	1	8	9	0	0	0.746873285106495	1
255	1	[433.80000000447035]	3	1	0.890747266952007	0.109252733047992	16	1	9	9	0	0	0.781494533904015	1
255	1	[448.8999999985099]	3	1	0.933497577605886	0.0665024223941131	19	0	10	9	0	0	0.866995155211773	1
255	0	[414.70000000298023]	3	0	0.0664573382444344	0.933542661755565	19	1	11	9	0	0	0.867085323511131	1
255	0	[467.6000000014901]	3	0	0.102003329748023	0.897996670251976	28	0	12	9	0	0	0.795993340503953	1
255	1	[377]	3	0	0.0577277152234536	0.942272284776546	19	0	13	9	0	0	0.884544569553092	0
255	1	[379.3999999985099]	3	1	0.89053888251934	0.109461117480659	19	1	14	9	0	0	0.781077765038681	1
255	0	[519]	3	0	0.0987993363703882	0.901200663629611	17	1	15	9	0	0	0.802401327259223	1
255	1	[520.3000000044703]	3	1	0.949086283450662	0.0509137165493372	16	0	16	9	0	0	0.898172566901325	1
255	0	[438.30000000447035]	3	0	0.0987828253604694	0.90121717463953	42	0	17	9	0	0	0.802434349279061	1
255	0	[357.80000000447035]	3	1	0.864033933107276	0.135966066892723	34	0	18	9	0	0	0.728067866214553	0
255	1	[333.6000000014901]	3	1	0.865370410323886	0.134629589676113	20	1	19	9	0	0	0.730740820647773	1
255	1	[450.6000000014901]	3	1	0.886093668305371	0.113906331694628	18	1	20	9	0	0	0.772187336610743	1
255	0	[466.90000000596046]	3	0	0.0913303384064447	0.908669661593555	19	1	21	9	0	0	0.81733932318711	1
255	0	[363.19999999552965]	3	0	0.0506063724004705	0.949393627599529	29	0	22	9	0	0	0.898787255199059	1
255	1	[379.29999999701977]	3	1	0.899811948453101	0.100188051546898	44	0	23	9	0	0	0.799623896906203	1
255	1	[482.3999999985099]	3	1	0.884086431995725	0.115913568004274	42	1	24	9	0	0	0.768172863991451	1
255	1	[422.30000000447035]	3	1	0.933060097526407	0.0669399024735924	37	1	25	9	0	0	0.866120195052815	1
255	0	[804.0999999940395]	2	0	0.493116946358048	0.506883053641952	72	1	1	10	0	1	0.013766107283904	1
255	1	[404.09999999403954,888.7999999970198]	2	1	0.530208398568753	0.469791601431247	78	1	2	10	0	1	0.060416797137506	1
255	1	[386,712.0999999940395,986.8999999985099]	2	1	0.568061471592394	0.431938528407605	83	1	3	10	0	1	0.136122943184789	1
255	0	[458.8999999985099]	2	0	0.456449859771816	0.543550140228183	87	1	4	10	0	1	0.087100280456367	1
255	1	[405.29999999701977]	2	1	0.541090170646017	0.458909829353982	89	1	5	10	0	1	0.0821803412920351	1
255	1	[484.8999999985099]	2	1	0.53969450724188	0.46030549275812	87	1	6	10	0	1	0.07938901448376	1
255	1	[537.5]	2	1	0.557820577578177	0.442179422421822	88	1	7	10	0	1	0.115641155156355	1
255	0	[547.1000000014901]	2	0	0.468075709038585	0.531924290961414	84	1	8	10	0	1	0.0638485819228291	1
255	0	[466.90000000596046,815]	2	0	0.42020540283895	0.579794597161049	88	1	9	10	0	1	0.159589194322099	1
255	1	[454.80000000447035]	2	1	0.523324866885679	0.47667513311432	86	1	10	10	0	1	0.046649733771359	1
255	1	[535.1999999955297]	2	1	0.53568704516295	0.464312954837049	88	1	11	10	0	1	0.071374090325901	1
255	0	[495.40000000596046]	2	0	0.437333801365247	0.562666198634752	89	1	12	10	0	1	0.125332397269505	1
255	0	[397.20000000298023]	2	0	0.443098371224954	0.556901628775045	94	1	13	10	0	1	0.113803257550091	1
255	1	[420.8999999985099]	2	1	0.552227946578185	0.447772053421814	90	1	14	10	0	1	0.104455893156371	1
255	0	[688.2999999970198]	2	0	0.433721694243153	0.566278305756846	94	1	15	10	0	1	0.132556611513693	1
255	1	[757.7999999970198]	2	1	0.506569370777088	0.493430629222912	91	1	16	10	0	1	0.013138741554176	1
255	1	[399.70000000298023]	2	1	0.598566934225963	0.401433065774036	91	1	17	10	0	1	0.197133868451927	1
255	0	[467.3999999985099]	2	0	0.403105281827262	0.596894718172737	89	1	18	10	0	1	0.193789436345475	1
255	0	[816.2999999970198]	2	0	0.459598331302892	0.540401668697107	91	1	19	10	0	1	0.080803337394215	1
255	1	[482.5,802.3000000044703]	2	1	0.563928893058881	0.436071106941118	89	1	20	10	0	1	0.127857786117763	1
255	1	[505.1000000014901,818.7000000029802]	2	1	0.536154060425154	0.463845939574845	91	1	21	10	0	1	0.072308120850309	1
255	1	[512.1999999955297,860.1999999955297]	2	0	0.498821097601305	0.501178902398694	78	0	22	10	0	1	0.00235780479738901	0
255	0	[809.6999999955297]	2	0	0.469947321014491	0.530052678985508	88	1	23	10	0	1	0.060105357971017	1
255	0	[436.5,727.2999999970198]	2	0	0.453418681359398	0.546581318640601	89	1	24	10	0	1	0.093162637281203	1
255	1	[630.2000000029802,921.6000000014901]	2	1	0.52987571319893	0.470124286801069	92	1	25	10	0	1	0.059751426397861	1
255	1	[393.20000000298023,678,889.2000000029802]	3	0	0.0628253037983003	0.937174696201699	77	1	1	11	1	1	0.874349392403399	1
255	1	[365.69999999552965,719.7999999970198,987.6999999955297]	3	0	0.100625069009732	0.899374930990267	66	0	2	11	1	1	0.798749861980535	1
255	0	[445.29999999701977]	3	1	0.870821792818788	0.129178207181211	50	1	3	11	1	1	0.741643585637577	1
255	1	[917.3999999985099]	3	0	0.138757769387382	0.861242230612617	85	1	4	11	1	1	0.722484461225235	1
255	0	[378.5,601.3000000044703,880.3999999985099]	3	1	0.931341529186119	0.0686584708138806	87	1	5	11	1	1	0.862683058372238	1
255	0	[423.20000000298023]	3	1	0.903520187456401	0.0964798125435987	74	0	6	11	1	1	0.807040374912802	1
255	1	[443.6000000014901,711.2000000029802,1002.3000000044703]	3	0	0.148984892937532	0.851015107062467	83	1	7	11	1	1	0.702030214124935	1
255	1	[618.4000000059605,853]	3	0	0.0511699850702056	0.948830014929794	76	0	8	11	1	1	0.897660029859588	1
255	1	[456.29999999701977,695.6000000014901,940.7999999970198]	3	0	0.130374049416651	0.869625950583348	83	1	9	11	1	1	0.739251901166697	1
255	0	[609.5999999940395,899.1999999955297]	3	1	0.860260091232208	0.139739908767791	79	1	10	11	1	1	0.720520182464417	1
255	1	[997.1999999955297]	3	0	0.0605250215834786	0.939474978416521	67	0	11	11	1	1	0.878949956833042	1
255	1	[319,530.2000000029802]	3	0	0.1430975786821	0.856902421317899	71	1	12	11	1	1	0.713804842635799	1
255	0	[341.40000000596046]	3	1	0.880179625920818	0.119820374079181	64	0	13	11	1	1	0.760359251841637	1
255	0	[652.1000000014901,852]	3	1	0.92848903709527	0.0715109629047297	75	1	14	11	1	1	0.85697807419054	1
255	1	[365.8999999985099]	3	0	0.0792209841023742	0.920779015897625	79	1	15	11	1	1	0.841558031795251	1
255	0	[427.5]	3	1	0.904818809705943	0.0951811902940564	80	1	16	11	1	1	0.809637619411887	1
255	0	[746.6000000014901]	3	1	0.903932360398393	0.0960676396016065	67	0	17	11	1	1	0.807864720796787	1
255	0	[390.59999999403954,693.6999999955297]	3	1	0.879965582999499	0.1200344170005	78	1	18	11	1	1	0.759931165998999	1
255	1	[621.3999999985099]	3	0	0.1206810527639	0.879318947236099	81	1	19	11	1	1	0.758637894472199	1
255	1	[342]	3	0	0.140607847259349	0.85939215274065	69	0	20	11	1	1	0.718784305481301	1
255	1	[386,705.2000000029802]	3	0	0.0641615088689843	0.935838491131015	80	1	21	11	1	1	0.871676982262031	1
255	1	[424.3999999985099,759.6999999955297]	3	0	0.131630063955768	0.868369936044231	84	1	22	11	1	1	0.736739872088463	1
255	0	[557.0999999940395]	3	1	0.918247715852224	0.0817522841477753	63	0	23	11	1	1	0.836495431704449	1
255	0	[353.5,643.3000000044703]	3	1	0.931919151943228	0.0680808480567713	83	0	24	11	1	1	0.863838303886457	1
255	0	[279.1000000014901]	3	1	0.862786612851493	0.137213387148506	84	0	25	11	1	1	0.725573225702987	1
255	1	[662.5]	2	0	0.422841083743117	0.577158916256882	71	1	1	12	1	0	0.154317832513765	1
255	1	[556.2000000029802,762]	2	1	0.572558735577977	0.427441264422022	24	0	2	12	1	0	0.145117471155955	0
255	0	[724.8999999985099,981.3000000044703]	2	1	0.560364688616014	0.439635311383985	23	1	3	12	1	0	0.120729377232029	1
255	0	[565.1999999955297,821.6000000014901]	2	0	0.473603615066661	0.526396384933338	29	0	4	12	1	0	0.052792769866677	0
255	0	[784.1999999955297,967.7999999970198]	2	1	0.560163661716959	0.43983633828304	34	1	5	12	1	0	0.120327323433919	1
255	0	[470.8999999985099,717.7000000029802]	2	1	0.545236734563933	0.454763265436067	23	1	6	12	1	0	0.090473469127866	1
255	1	[338.5,538.4000000059605,783.2000000029802]	2	0	0.436705204296942	0.563294795703057	25	1	7	12	1	0	0.126589591406115	1
255	0	[404.3999999985099,706.2999999970198]	2	1	0.536245947468606	0.463754052531393	28	1	8	12	1	0	0.072491894937213	1
255	1	[423.5]	2	0	0.44903776034268	0.550962239657319	13	1	9	12	1	0	0.101924479314639	1
255	0	[685.5]	2	0	0.499687956200825	0.500312043799174	35	0	10	12	1	0	0.000624087598349032	0
255	0	[443.19999999552965]	2	1	0.596279972267864	0.403720027732135	21	1	11	12	1	0	0.192559944535729	1
255	1	[367.8999999985099,738.3999999985099]	2	0	0.412902428596644	0.587097571403355	23	1	12	12	1	0	0.174195142806711	1
255	0	[627.6000000014901]	2	0	0.479294122639827	0.520705877360172	20	0	13	12	1	0	0.041411754720345	0
255	0	[561.6999999955297]	2	1	0.595925463661897	0.404074536338102	19	1	14	12	1	0	0.191850927323795	1
255	0	[493.20000000298023,767.7000000029802]	2	1	0.538718680871755	0.461281319128244	16	1	15	12	1	0	0.077437361743511	1
255	0	[433.70000000298023]	2	1	0.555205966339526	0.444794033660473	27	1	16	12	1	0	0.110411932679053	1
255	1	[768]	2	0	0.457819980116975	0.542180019883024	11	1	17	12	1	0	0.084360039766049	1
255	0	[611.7000000029802]	2	1	0.568315133066087	0.431684866933912	12	1	18	12	1	0	0.136630266132175	1
255	1	[397.5]	2	0	0.407978036186891	0.592021963813108	24	1	19	12	1	0	0.184043927626217	1
255	0	[495.3999999985099]	2	1	0.552960339053827	0.447039660946173	16	1	20	12	1	0	0.105920678107654	1
255	1	[433]	2	0	0.410045141461714	0.589954858538285	16	1	21	12	1	0	0.179909717076571	1
255	1	[385.20000000298023,653.7999999970198,893.1000000014901]	2	0	0.405568642187064	0.594431357812935	15	1	22	12	1	0	0.188862715625871	1
255	0	[376.29999999701977]	2	1	0.576573584412301	0.423426415587698	16	1	23	12	1	0	0.153147168824603	1
255	1	[367.69999999552965,818.7999999970198]	2	0	0.400789341715264	0.599210658284735	50	1	24	12	1	0	0.198421316569471	1
255	0	[471.30000000447035,728.2000000029802,974.2000000029802]	2	1	0.560548314092816	0.439451685907183	11	0	25	12	1	0	0.121096628185633	1
