ID	choice	rt	choice_cond	state	contrast_left	contrast_right	mu	correct	trials	blocks	contrast	congruence	con_diff_choice	ecoperf
370	1	[488]	2	0	0.408952917718611	0.591047082281388	24	1	1	1	1	0	0.182094164562777	1
370	0	[870.5]	2	0	0.499605319324292	0.500394680675707	43	0	2	1	1	0	0.000789361351415052	0
370	1	[665.3000000007451]	2	0	0.498077345780207	0.501922654219792	33	1	3	1	1	0	0.00384530843958497	1
370	1	[716.3999999985099]	2	1	0.506380392132968	0.493619607867031	43	0	4	1	1	0	0.012760784265937	0
370	1	[629.2999999988824]	2	0	0.44742677892489	0.552573221075109	35	1	5	1	1	0	0.105146442150219	1
370	0	[579.0999999996275]	2	1	0.544960309292569	0.45503969070743	28	1	6	1	1	0	0.089920618585139	1
370	1	[798.5999999996275]	2	1	0.509792769857701	0.490207230142298	40	0	7	1	1	0	0.0195855397154029	0
370	1	[516.9000000003725]	2	0	0.450740038413677	0.549259961586322	26	1	8	1	1	0	0.098519923172645	1
370	1	[559.9000000003725]	2	0	0.450471676595115	0.549528323404884	20	1	9	1	1	0	0.099056646809769	1
370	1	[503.09999999962747]	2	0	0.402554679213039	0.59744532078696	13	1	10	1	1	0	0.194890641573921	1
370	0	[692]	2	1	0.570764089275542	0.429235910724457	11	1	11	1	1	0	0.141528178551085	1
370	0	[746]	2	1	0.596241205815266	0.403758794184733	9	1	12	1	1	0	0.192482411630533	1
370	0	[485.09999999962747]	2	1	0.564695523998248	0.435304476001752	7	1	13	1	1	0	0.129391047996496	1
370	0	[527.8999999985099]	2	1	0.570125329927549	0.42987467007245	9	1	14	1	1	0	0.140250659855099	1
370	1	[464.2000000011176]	2	0	0.425509368517641	0.574490631482358	8	1	15	1	1	0	0.148981262964717	1
370	1	[532.8000000007451]	2	0	0.459678142241014	0.540321857758985	6	1	16	1	1	0	0.080643715517971	1
370	1	[471.69999999925494]	2	0	0.468721323758315	0.531278676241684	4	1	17	1	1	0	0.062557352483369	1
370	1	[536]	2	0	0.482565628199825	0.517434371800174	3	1	18	1	1	0	0.034868743600349	1
370	1	[720.6999999992549]	2	1	0.505567126858528	0.494432873141471	8	0	19	1	1	0	0.011134253717057	0
370	0	[653.1000000014901]	2	1	0.52628128073876	0.473718719261239	6	1	20	1	1	0	0.052562561477521	1
370	1	[464.90000000037253]	2	0	0.405252257010934	0.594747742989065	3	1	21	1	1	0	0.189495485978131	1
370	0	[642.2999999988824]	2	1	0.590299626119538	0.409700373880461	2	1	22	1	1	0	0.180599252239077	1
370	1	[482.40000000037253]	2	0	0.42933537518867	0.570664624811329	2	1	23	1	1	0	0.141329249622659	1
370	0	[553.5999999996275]	2	1	0.53487638186111	0.465123618138889	1	1	24	1	1	0	0.069752763722221	1
370	0	[582.0999999996275]	2	1	0.512242177718389	0.48775782228161	0	0	25	1	1	0	0.024484355436779	1
370	1	[437.30000000074506]	3	0	0.131311628097432	0.868688371902567	68	0	1	2	0	1	0.737376743805135	0
370	1	[604.5999999996275]	3	1	0.890084361330181	0.109915638669818	37	0	2	2	0	1	0.780168722660363	1
370	0	[588.3000000007451]	3	0	0.138919071345224	0.861080928654775	63	1	3	2	0	1	0.722161857309551	1
370	1	[412.8999999985099]	3	1	0.939566104135502	0.0604338958644979	68	1	4	2	0	1	0.879132208271004	1
370	0	[420.1000000014901]	3	0	0.13923026186057	0.860769738139429	57	0	5	2	0	1	0.721539476278859	1
370	0	[402.7999999988824]	3	0	0.130273351648072	0.869726648351927	63	1	6	2	0	1	0.739453296703855	1
370	1	[432.30000000074506]	3	1	0.932892811165712	0.0671071888342871	71	1	7	2	0	1	0.865785622331425	1
370	1	[430.7999999988824]	3	1	0.912914344308381	0.0870856556916184	64	0	8	2	0	1	0.825828688616763	1
370	1	[413]	3	1	0.895277858098117	0.104722141901882	69	1	9	2	0	1	0.790555716196235	1
370	0	[542]	3	0	0.107536748129841	0.892463251870158	66	1	10	2	0	1	0.784926503740317	1
370	0	[422.59999999962747]	3	1	0.864989242283114	0.135010757716886	65	0	11	2	0	1	0.729978484566228	0
370	1	[367.90000000037253]	3	1	0.922915316361016	0.0770846836389839	72	1	12	2	0	1	0.845830632722032	1
370	0	[424.90000000037253]	3	0	0.0892459508291538	0.910754049170846	75	1	13	2	0	1	0.821508098341692	1
370	1	[404.2999999988824]	3	1	0.866775679035985	0.133224320964014	80	1	14	2	0	1	0.733551358071971	1
370	1	[413.2000000011176]	3	1	0.865316300548094	0.134683699451905	77	1	15	2	0	1	0.730632601096189	1
370	1	[423.2000000011176]	3	1	0.920765110521314	0.079234889478685	69	0	16	2	0	1	0.841530221042629	1
370	0	[418.3999999985099]	3	0	0.110965836702954	0.889034163297045	75	1	17	2	0	1	0.778068326594091	1
370	0	[417.09999999962747]	3	0	0.0519446871127695	0.94805531288723	65	0	18	2	0	1	0.896110625774461	1
370	0	[412.59999999962747]	3	0	0.13241453515722	0.867585464842779	65	1	19	2	0	1	0.735170929685559	1
370	1	[457.40000000037253]	3	1	0.927665019818903	0.0723349801810969	67	1	20	2	0	1	0.855330039637806	1
370	0	[402.80000000074506]	3	0	0.0741367001966045	0.925863299803395	71	1	21	2	0	1	0.851726599606791	1
370	0	[463.5]	3	0	0.0519448518699107	0.948055148130089	62	0	22	2	0	1	0.896110296260178	1
370	0	[467.6000000014901]	3	0	0.083692162457882	0.916307837542118	69	1	23	2	0	1	0.832615675084236	1
370	0	[640.4000000003725]	3	0	0.0764709600012383	0.923529039998761	63	0	24	2	0	1	0.847058079997523	1
370	1	[433.2000000011176]	3	1	0.866539672008916	0.133460327991083	61	0	25	2	0	1	0.733079344017833	1
370	0	[555.6999999992549]	1	0	0.461770755634474	0.538229244365525	62	1	1	3	1	0	0.076458488731051	0
370	1	[706.7999999988824]	1	1	0.551346784482316	0.448653215517683	57	0	2	3	1	0	0.102693568964633	0
370	1	[830.4000000003725]	1	1	0.577538250162579	0.42246174983742	43	0	3	3	1	0	0.155076500325159	0
370	1	[483.2000000011176]	1	0	0.446734573816875	0.553265426183124	42	1	4	3	1	0	0.106530852366249	1
370	1	[818.6999999992549]	1	1	0.50897198501829	0.491028014981709	38	1	5	3	1	0	0.017943970036581	0
370	1	[666.6999999992549]	1	0	0.486855027035453	0.513144972964546	34	1	6	3	1	0	0.026289945929093	1
370	0	[731.8000000007451]	1	1	0.529242557401208	0.470757442598791	34	1	7	3	1	0	0.058485114802417	1
370	1	[461.80000000074506]	1	0	0.447639750569997	0.552360249430002	39	0	8	3	1	0	0.104720498860005	1
370	1	[671.0999999996275]	1	0	0.467496497923969	0.53250350207603	35	1	9	3	1	0	0.065007004152061	1
370	1	[439.59999999962747]	1	0	0.411440071857687	0.588559928142312	35	1	10	3	1	0	0.177119856284625	1
370	0	[527.6999999992549]	1	1	0.574232078322387	0.425767921677612	28	1	11	3	1	0	0.148464156644775	1
370	1	[465.5]	1	0	0.467612875175738	0.532387124824261	25	1	12	3	1	0	0.064774249648523	1
370	0	[445.2000000011176]	1	1	0.542566758389693	0.457433241610306	21	1	13	3	1	0	0.085133516779387	1
370	1	[708.7999999988824]	1	0	0.426055056013384	0.573944943986615	21	1	14	3	1	0	0.147889887973231	1
370	0	[448]	1	1	0.595734523021287	0.404265476978712	15	1	15	3	1	0	0.191469046042575	1
370	0	[444.90000000037253]	1	1	0.578726380978633	0.421273619021366	23	0	16	3	1	0	0.157452761957267	1
370	1	[535.2999999988824]	1	0	0.486430381325329	0.51356961867467	26	1	17	3	1	0	0.027139237349341	1
370	1	[480.40000000037253]	1	0	0.46985718785373	0.530142812146269	27	0	18	3	1	0	0.060285624292539	1
370	1	[486.40000000037253]	1	0	0.403619163056548	0.596380836943452	25	1	19	3	1	0	0.192761673886904	1
370	0	[441.2000000011176]	1	1	0.590786818600475	0.409213181399524	23	1	20	3	1	0	0.181573637200951	1
370	0	[444]	1	1	0.549611587736733	0.450388412263267	20	1	21	3	1	0	0.099223175473466	1
370	1	[502.40000000037253]	1	1	0.503835792780392	0.496164207219607	17	1	22	3	1	0	0.00767158556078501	0
370	0	[496.1000000014901]	1	1	0.591058023264362	0.408941976735637	12	1	23	3	1	0	0.182116046528725	1
370	1	[474.59999999962747]	1	0	0.42653075024161	0.57346924975839	16	0	24	3	1	0	0.14693849951678	1
370	0	[460.19999999925494]	1	1	0.574436605930972	0.425563394069027	20	0	25	3	1	0	0.148873211861945	1
370	1	[464.19999999925494]	1	0	0.418714829855644	0.581285170144355	38	0	1	4	1	1	0.162570340288711	1
370	1	[684.4000000003725]	1	1	0.530622603412732	0.469377396587267	45	0	2	4	1	1	0.061245206825465	0
370	1	[540.2999999988824]	1	0	0.478159793168534	0.521840206831465	57	1	3	4	1	1	0.043680413662931	1
370	1	[466.2000000011176]	1	0	0.471923103855417	0.528076896144582	65	1	4	4	1	1	0.0561537922891649	1
370	0	[549]	1	1	0.534654643048673	0.465345356951326	65	1	5	4	1	1	0.069309286097347	1
370	0	[451.1000000014901]	1	1	0.597126640009145	0.402873359990854	58	0	6	4	1	1	0.194253280018291	1
370	1	[629.5999999996275]	1	0	0.44839035104722	0.551609648952779	46	0	7	4	1	1	0.103219297905559	1
370	0	[430.90000000037253]	1	1	0.56293811958068	0.437061880419319	59	1	8	4	1	1	0.125876239161361	1
370	0	[446.90000000037253]	1	1	0.576603199490086	0.423396800509913	59	1	9	4	1	1	0.153206398980173	1
370	1	[419.80000000074506]	1	0	0.4892184436968	0.510781556303199	63	1	10	4	1	1	0.021563112606399	1
370	1	[580.5999999996275]	1	1	0.518232262824356	0.481767737175643	58	0	11	4	1	1	0.036464525648713	0
370	1	[435.30000000074506]	1	0	0.457336608693545	0.542663391306454	62	1	12	4	1	1	0.085326782612909	1
370	1	[508.5]	1	0	0.45827155305454	0.541728446945459	73	1	13	4	1	1	0.083456893890919	1
370	0	[451]	1	1	0.573316594787324	0.426683405212675	69	1	14	4	1	1	0.146633189574649	1
370	0	[752.7000000011176]	1	1	0.520415366947308	0.479584633052691	63	0	15	4	1	1	0.0408307338946169	1
370	0	[666.5999999996275]	1	1	0.534088216382931	0.465911783617068	64	1	16	4	1	1	0.068176432765863	1
370	0	[737.0999999996275]	1	1	0.537446728202167	0.462553271797832	66	1	17	4	1	1	0.074893456404335	1
370	1	[426.09999999962747]	1	0	0.438834350367577	0.561165649632422	68	1	18	4	1	1	0.122331299264845	1
370	1	[444.59999999962747]	1	0	0.4839002837659	0.516099716234099	66	1	19	4	1	1	0.032199432468199	1
370	1	[435.5]	1	0	0.473647416064945	0.526352583935055	60	0	20	4	1	1	0.05270516787011	1
370	1	[430.09999999962747]	1	0	0.442544198346241	0.557455801653758	66	1	21	4	1	1	0.114911603307517	1
370	1	[442.90000000037253]	1	0	0.458617177905288	0.541382822094711	61	0	22	4	1	1	0.082765644189423	1
370	0	[502.09999999962747]	1	1	0.540785367161148	0.459214632838851	60	0	23	4	1	1	0.081570734322297	1
370	1	[435.69999999925494]	1	0	0.406929218017306	0.593070781982694	64	1	24	4	1	1	0.186141563965388	1
370	1	[685.6000000014901]	1	1	0.512628189916727	0.487371810083272	59	0	25	4	1	1	0.025256379833455	0
370	1	[444.3999999985099]	3	0	0.0744398087741526	0.925560191225847	63	0	1	5	1	0	0.851120382451694	1
370	1	[435.7000000011176]	3	1	0.925048736081349	0.074951263918651	46	0	2	5	1	0	0.850097472162698	0
370	0	[348.90000000037253]	3	1	0.928687467798555	0.0713125322014448	40	1	3	5	1	0	0.85737493559711	1
370	0	[476.7999999988824]	3	1	0.940414451719227	0.0595855482807723	42	0	4	5	1	0	0.880828903438455	1
370	0	[388.09999999962747]	3	1	0.917143339193266	0.0828566608067337	38	1	5	5	1	0	0.834286678386532	1
370	0	[425.69999999925494]	3	1	0.853256669862344	0.146743330137655	32	1	6	5	1	0	0.706513339724689	1
370	1	[543.7999999988824]	3	0	0.113398635479457	0.886601364520542	28	1	7	5	1	0	0.773202729041085	1
370	1	[374.5]	3	0	0.086584651083635	0.913415348916365	30	1	8	5	1	0	0.82683069783273	1
370	1	[377.5]	3	0	0.0618764624705077	0.938123537529492	36	0	9	5	1	0	0.876247075058984	1
370	1	[374]	3	0	0.0835701237548874	0.916429876245112	25	1	10	5	1	0	0.832859752490225	1
370	1	[484.09999999962747,576.1999999992549]	3	0	0.0733452968452929	0.926654703154707	33	1	11	5	1	0	0.853309406309414	1
370	0	[402.5]	3	1	0.876444902154946	0.123555097845053	24	1	12	5	1	0	0.752889804309893	1
370	0	[551]	3	1	0.850084870694057	0.149915129305942	20	1	13	5	1	0	0.700169741388115	1
370	0	[377.5]	3	1	0.929921586025051	0.0700784139749484	32	0	14	5	1	0	0.859843172050103	1
370	1	[360.90000000037253]	3	0	0.128696394238961	0.871303605761038	27	1	15	5	1	0	0.742607211522077	1
370	1	[316.5]	3	0	0.111713750291467	0.888286249708532	29	1	16	5	1	0	0.776572499417065	1
370	1	[361.09999999962747]	3	0	0.140744265763488	0.859255734236511	23	1	17	5	1	0	0.718511468473023	1
370	0	[357.59999999962747]	3	1	0.904065597050572	0.095934402949428	21	1	18	5	1	0	0.808131194101144	1
370	1	[387]	3	0	0.0684296643842381	0.931570335615761	32	0	19	5	1	0	0.863140671231523	1
370	1	[434.59999999962747]	3	1	0.934801846571203	0.065198153428796	21	0	20	5	1	0	0.869603693142407	0
370	1	[399.5]	3	0	0.107084302795388	0.892915697204612	19	1	21	5	1	0	0.785831394409224	1
370	1	[603.7000000011176]	3	0	0.0798731211247254	0.920126878875274	17	0	22	5	1	0	0.840253757750549	1
370	0	[588.2000000011176]	3	1	0.946140692627282	0.0538593073727179	20	0	23	5	1	0	0.892281385254564	1
370	1	[445.3999999985099]	3	0	0.0801631036131052	0.919836896386894	20	1	24	5	1	0	0.839673792773789	1
370	0	[786.3999999985099]	3	1	0.883587884103514	0.116412115896485	19	1	25	5	1	0	0.767175768207029	1
370	1	[601]	3	0	0.127625313681928	0.872374686318071	18	0	1	6	0	0	0.744749372636143	0
370	0	[550]	3	0	0.088947442478782	0.911052557521218	20	1	2	6	0	0	0.822105115042436	1
370	0	[393.3999999985099]	3	0	0.129714219696653	0.870285780303346	31	0	3	6	0	0	0.740571560606693	1
370	0	[474.5]	3	0	0.0854707116922045	0.914529288307795	31	1	4	6	0	0	0.82905857661559	1
370	0	[454.30000000074506]	3	0	0.13218283973338	0.867817160266619	19	1	5	6	0	0	0.735634320533239	1
370	0	[570.9000000022352]	3	0	0.147202294342326	0.852797705657673	16	1	6	6	0	0	0.705595411315347	1
370	1	[508.5]	3	1	0.894754103950844	0.105245896049155	42	0	7	6	0	0	0.789508207901689	1
370	0	[485.30000000074506]	3	1	0.859625084088442	0.140374915911557	31	0	8	6	0	0	0.719250168176885	0
370	0	[519.1000000014901]	3	0	0.143140691716953	0.856859308283046	17	1	9	6	0	0	0.713718616566093	1
370	1	[524.3000000007451]	3	1	0.890617709451242	0.109382290548758	15	1	10	6	0	0	0.781235418902484	1
370	1	[540.6999999992549]	3	1	0.902070683011327	0.0979293169886725	19	0	11	6	0	0	0.804141366022655	1
370	0	[504.9000000022352]	3	0	0.082434602907975	0.917565397092025	24	0	12	6	0	0	0.83513079418405	1
370	0	[570.8999999985099]	3	0	0.13218606729647	0.867813932703529	21	1	13	6	0	0	0.735627865407059	1
370	1	[504.5999999977648]	3	1	0.897409259909773	0.102590740090226	24	1	14	6	0	0	0.794818519819547	1
370	1	[391.19999999925494]	3	1	0.918275976457944	0.0817240235420552	32	1	15	6	0	0	0.836551952915889	1
370	0	[403.8999999985099]	3	0	0.0599302626675065	0.940069737332493	23	1	16	6	0	0	0.880139474664987	1
370	0	[496.1000000014901]	3	0	0.0575640159192978	0.942435984080702	28	0	17	6	0	0	0.884871968161404	1
370	1	[542.7000000029802]	3	1	0.916573567705086	0.0834264322949134	18	1	18	6	0	0	0.833147135410173	1
370	1	[414.19999999925494]	3	1	0.865058751391958	0.134941248608041	17	1	19	6	0	0	0.730117502783917	1
370	1	[388.69999999925494]	3	1	0.91496620377025	0.0850337962297499	15	1	20	6	0	0	0.8299324075405	1
370	1	[491.6000000014901]	3	1	0.877929458377774	0.122070541622225	19	0	21	6	0	0	0.755858916755549	1
370	0	[511.20000000298023]	3	0	0.0682418681501223	0.931758131849877	22	1	22	6	0	0	0.863516263699755	1
370	1	[459.80000000074506]	3	1	0.883311620193497	0.116688379806502	18	1	23	6	0	0	0.766623240386995	1
370	1	[450.8999999985099]	3	1	0.928635629393738	0.0713643706062616	23	0	24	6	0	0	0.857271258787476	1
370	1	[437.6000000014901]	3	1	0.944660728348603	0.0553392716513969	21	1	25	6	0	0	0.889321456697206	1
370	1	[533.6999999992549]	1	0	0.488838300550594	0.511161699449405	60	0	1	7	0	1	0.022323398898811	0
370	1	[516.4000000022352]	1	1	0.529226046746124	0.470773953253876	54	0	2	7	0	1	0.0584520934922479	1
370	1	[527]	1	1	0.599887148572244	0.400112851427756	63	1	3	7	0	1	0.199774297144488	1
370	0	[538.0999999977648]	1	0	0.475542216935102	0.524457783064897	64	1	4	7	0	1	0.048915566129795	1
370	0	[524.8000000007451]	1	1	0.549388733540066	0.450611266459933	61	0	5	7	0	1	0.098777467080133	0
370	1	[492.30000000074506]	1	1	0.587767450494566	0.412232549505433	59	0	6	7	0	1	0.175534900989133	1
370	1	[540.3000000007451]	1	1	0.592161672803829	0.40783832719617	64	1	7	7	0	1	0.184323345607659	1
370	0	[507.29999999701977]	1	1	0.535355917446312	0.464644082553687	59	0	8	7	0	1	0.0707118348926249	0
370	0	[451.69999999925494]	1	0	0.41639179701944	0.583608202980559	55	0	9	7	0	1	0.167216405961119	1
370	0	[415.8999999985099]	1	0	0.408175091799379	0.59182490820062	59	1	10	7	0	1	0.183649816401241	1
370	0	[460.30000000074506]	1	0	0.476688408539071	0.523311591460928	63	1	11	7	0	1	0.046623182921857	1
370	0	[471.5]	1	1	0.506590566056635	0.493409433943365	59	0	12	7	0	1	0.01318113211327	0
370	0	[477.80000000074506]	1	0	0.493065562597378	0.506934437402621	62	1	13	7	0	1	0.013868874805243	1
370	0	[459.80000000074506]	1	1	0.504379546169014	0.495620453830985	56	0	14	7	0	1	0.00875909233802902	0
370	0	[467.80000000074506]	1	0	0.417795309821571	0.582204690178428	63	1	15	7	0	1	0.164409380356857	1
370	1	[558.8000000007451]	1	1	0.57257463482436	0.427425365175639	64	1	16	7	0	1	0.145149269648721	1
370	1	[491.20000000298023]	1	1	0.57577813070846	0.42422186929154	61	0	17	7	0	1	0.15155626141692	1
370	0	[425.69999999925494]	1	0	0.416322103980849	0.58367789601915	57	0	18	7	0	1	0.167355792038301	1
370	1	[480.79999999701977]	1	1	0.58083685817044	0.419163141829559	61	1	19	7	0	1	0.161673716340881	1
370	0	[476.30000000074506]	1	0	0.415365347285889	0.58463465271411	63	1	20	7	0	1	0.169269305428221	1
370	0	[485.19999999925494]	1	0	0.466252556454828	0.533747443545171	65	1	21	7	0	1	0.067494887090343	1
370	1	[482.80000000074506]	1	1	0.587039498245008	0.412960501754991	59	0	22	7	0	1	0.174078996490017	1
370	0	[432.20000000298023]	1	0	0.420200506085498	0.579799493914501	57	0	23	7	0	1	0.159598987829003	1
370	0	[447]	1	0	0.405158029511316	0.594841970488683	60	1	24	7	0	1	0.189683940977367	1
370	0	[686]	1	1	0.574376338762089	0.42562366123791	54	0	25	7	0	1	0.148752677524179	0
370	1	[445.1000000014901]	2	0	0.446684030376166	0.553315969623833	30	0	1	8	0	0	0.106631939247667	0
370	1	[526]	2	0	0.411256345080292	0.588743654919707	30	0	2	8	0	0	0.177487309839415	0
370	1	[448.30000000074506]	2	1	0.5346677565914	0.465332243408599	25	1	3	8	0	0	0.069335513182801	1
370	1	[431.8999999985099]	2	1	0.555172762708581	0.444827237291418	20	1	4	8	0	0	0.110345525417163	1
370	1	[444.9000000022352]	2	1	0.560244349377182	0.439755650622817	16	1	5	8	0	0	0.120488698754365	1
370	0	[474.69999999925494]	2	0	0.411433685303675	0.588566314696324	12	1	6	8	0	0	0.177132629392649	1
370	0	[446.3999999985099]	2	0	0.423443099646734	0.576556900353266	11	1	7	8	0	0	0.153113800706532	1
370	1	[496.80000000074506]	2	1	0.579322372858246	0.420677627141753	7	1	8	8	0	0	0.158644745716493	1
370	0	[460.1000000014901]	2	0	0.417625330111612	0.582374669888387	5	1	9	8	0	0	0.164749339776775	1
370	0	[441.0999999977648]	2	0	0.442345840223774	0.557654159776225	2	1	10	8	0	0	0.115308319552451	1
370	0	[410.80000000074506]	2	0	0.457662329957497	0.542337670042502	0	1	11	8	0	0	0.084675340085005	1
370	1	[486.80000000074506]	2	1	0.588183905101706	0.411816094898293	0	1	12	8	0	0	0.176367810203413	1
370	1	[438.69999999925494]	2	1	0.59265704897373	0.40734295102627	0	1	13	8	0	0	0.18531409794746	1
370	1	[452.6000000014901]	2	1	0.528723278897017	0.471276721102982	0	1	14	8	0	0	0.057446557794035	1
370	0	[417.69999999925494]	2	0	0.447941575851473	0.552058424148526	0	1	15	8	0	0	0.104116848297053	1
370	0	[790.4000000022352]	2	1	0.532241611263303	0.467758388736696	2	0	16	8	0	0	0.064483222526607	0
370	0	[490.4000000022352]	2	0	0.405567910077622	0.594432089922377	0	1	17	8	0	0	0.188864179844755	1
370	0	[454.79999999701977]	2	0	0.435515284823897	0.564484715176102	0	1	18	8	0	0	0.128969430352205	1
370	0	[427.1000000014901]	2	0	0.400844911788978	0.599155088211021	0	1	19	8	0	0	0.198310176422043	1
370	1	[545.1000000014901]	2	1	0.551393888673129	0.44860611132687	0	1	20	8	0	0	0.102787777346259	1
370	0	[430.19999999925494]	2	0	0.452216839980306	0.547783160019693	0	1	21	8	0	0	0.095566320039387	1
370	1	[469.8999999985099]	2	1	0.542434923845495	0.457565076154504	0	1	22	8	0	0	0.084869847690991	1
370	1	[602.8999999985099]	2	1	0.533961197733567	0.466038802266432	0	1	23	8	0	0	0.067922395467135	1
370	0	[576.2000000029802]	2	0	0.4950539563325	0.504946043667499	0	1	24	8	0	0	0.00989208733499897	1
370	0	[799.8999999985099]	2	1	0.502265842278373	0.497734157721627	1	0	25	8	0	0	0.00453168455674602	0
370	1	[676.5999999977648]	1	1	0.588307160256471	0.411692839743528	62	0	1	9	0	0	0.176614320512943	1
370	1	[444.0999999977648]	1	0	0.413752366244251	0.586247633755748	53	0	2	9	0	0	0.172495267511497	0
370	1	[599.3000000007451]	1	1	0.512135706758472	0.487864293241527	52	1	3	9	0	0	0.024271413516945	1
370	0	[482.9000000022352]	1	1	0.506823315346654	0.493176684653345	45	0	4	9	0	0	0.013646630693309	0
370	1	[506.70000000298023]	1	1	0.508849335869579	0.49115066413042	53	0	5	9	0	0	0.017698671739159	1
370	1	[427.5]	1	0	0.451721865111955	0.548278134888044	42	0	6	9	0	0	0.096556269776089	0
370	0	[467.1000000014901]	1	0	0.455049313518002	0.544950686481997	44	0	7	9	0	0	0.089901372963995	1
370	1	[507.6000000014901]	1	1	0.54675818081998	0.453241819180019	40	1	8	9	0	0	0.093516361639961	1
370	1	[449.4000000022352]	1	1	0.562912158403207	0.437087841596792	38	1	9	9	0	0	0.125824316806415	1
370	1	[555.7000000029802]	1	1	0.519596289312102	0.480403710687897	35	1	10	9	0	0	0.039192578624205	1
370	1	[434.19999999925494]	1	1	0.591697638929005	0.408302361070994	30	1	11	9	0	0	0.183395277858011	1
370	1	[539.3999999985099]	1	1	0.521309935213077	0.478690064786922	27	1	12	9	0	0	0.042619870426155	1
370	0	[560.1999999992549]	1	0	0.472211234501344	0.527788765498655	25	1	13	9	0	0	0.0555775309973111	1
370	0	[521.5]	1	0	0.497335391840176	0.502664608159823	21	1	14	9	0	0	0.00532921631964695	1
370	0	[433.0999999977648]	1	0	0.403832117106987	0.596167882893012	14	1	15	9	0	0	0.192335765786025	1
370	1	[432.8999999985099]	1	1	0.567679814883751	0.432320185116248	22	0	16	9	0	0	0.135359629767503	1
370	0	[458.19999999925494]	1	0	0.448281477348817	0.551718522651182	21	1	17	9	0	0	0.103437045302365	1
370	0	[720.3000000007451]	1	1	0.546812768329305	0.453187231670694	25	0	18	9	0	0	0.093625536658611	0
370	0	[489]	1	0	0.467652113805334	0.532347886194665	26	0	19	9	0	0	0.064695772389331	1
370	1	[611.8000000007451]	1	0	0.499081863800788	0.500918136199211	29	0	20	9	0	0	0.00183627239842299	0
370	0	[579]	1	0	0.40085920480288	0.599140795197119	23	1	21	9	0	0	0.198281590394239	1
370	0	[568.6999999992549]	1	0	0.435323222259522	0.564676777740477	25	0	22	9	0	0	0.129353555480955	1
370	0	[452.80000000074506]	1	0	0.436560869485924	0.563439130514075	24	1	23	9	0	0	0.126878261028151	1
370	0	[447.0999999977648]	1	0	0.471830066297738	0.528169933702261	30	0	24	9	0	0	0.056339867404523	1
370	1	[473.5]	1	1	0.539488286498359	0.46051171350164	33	0	25	9	0	0	0.078976572996719	1
370	1	[427.5]	3	0	0.109524536789308	0.890475463210691	10	0	1	10	1	1	0.780950926421383	1
370	1	[452.0999999977648]	3	1	0.942487477297733	0.0575125227022667	33	0	2	10	1	1	0.884974954595466	0
370	1	[382.4000000022352]	3	0	0.126035055052665	0.873964944947334	69	1	3	10	1	1	0.747929889894669	1
370	0	[377]	3	1	0.91492907443703	0.085070925562969	75	1	4	10	1	1	0.829858148874061	1
370	1	[362.79999999701977]	3	0	0.0835852645999668	0.916414735400033	81	1	5	10	1	1	0.832829470800066	1
370	1	[383.19999999925494]	3	0	0.137926567478721	0.862073432521278	70	0	6	10	1	1	0.724146865042557	1
370	0	[389]	3	1	0.850556608545846	0.149443391454153	55	0	7	10	1	1	0.701113217091693	1
370	0	[407.9000000022352]	3	1	0.913320079556851	0.0866799204431487	62	1	8	10	1	1	0.826640159113702	1
370	0	[377.29999999701977]	3	1	0.878527056167258	0.121472943832741	66	1	9	10	1	1	0.757054112334517	1
370	1	[428.80000000074506]	3	0	0.132879951558844	0.867120048441155	67	1	10	10	1	1	0.734240096882311	1
370	1	[424.69999999925494]	3	0	0.107755017976401	0.892244982023598	74	1	11	10	1	1	0.784489964047197	1
370	1	[461.19999999925494]	3	0	0.100109836817449	0.89989016318255	78	1	12	10	1	1	0.799780326365101	1
370	0	[405]	3	1	0.905963404329949	0.0940365956700509	84	1	13	10	1	1	0.811926808659898	1
370	0	[410.30000000074506]	3	1	0.894021433577691	0.105978566422308	82	1	14	10	1	1	0.788042867155383	1
370	0	[422.6000000014901]	3	1	0.907543545063899	0.0924564549361001	71	0	15	10	1	1	0.815087090127799	1
370	1	[371.9000000022352]	3	0	0.13882422450078	0.861175775499219	74	1	16	10	1	1	0.722351550998439	1
370	1	[614.5]	3	0	0.136939056903837	0.863060943096162	77	1	17	10	1	1	0.726121886192325	1
370	0	[365]	3	1	0.904739030535417	0.0952609694645822	80	1	18	10	1	1	0.809478061070835	1
370	1	[390.5]	3	0	0.1161739109008	0.883826089099199	74	0	19	10	1	1	0.767652178198399	1
370	1	[401]	3	0	0.0601337937971296	0.93986620620287	76	1	20	10	1	1	0.87973241240574	1
370	0	[444.19999999925494]	3	1	0.925337033732338	0.0746629662676617	80	1	21	10	1	1	0.850674067464676	1
370	0	[393.4000000022352]	3	1	0.882518448532907	0.117481551467092	72	0	22	10	1	1	0.765036897065815	1
370	1	[430.30000000074506]	3	0	0.115169441436422	0.884830558563578	68	0	23	10	1	1	0.769661117127156	1
370	0	[341.30000000074506]	3	1	0.86672891225775	0.133271087742249	68	1	24	10	1	1	0.733457824515501	1
370	0	[389.0999999977648]	3	1	0.914301826460469	0.0856981735395308	66	0	25	10	1	1	0.828603652920938	1
370	0	[512]	2	0	0.484808647012265	0.515191352987734	59	0	1	11	1	1	0.030382705975469	0
370	1	[408.20000000298023]	2	0	0.430447054458259	0.56955294554174	63	1	2	11	1	1	0.139105891083481	1
370	0	[656.6999999992549]	2	1	0.573821141202438	0.426178858797561	68	1	3	11	1	1	0.147642282404877	1
370	0	[580.1000000014901]	2	1	0.591395903795618	0.408604096204381	74	1	4	11	1	1	0.182791807591237	1
370	1	[467.0999999977648]	2	0	0.440466048688843	0.559533951311156	84	1	5	11	1	1	0.119067902622313	1
370	1	[422.80000000074506]	2	0	0.404413229466247	0.595586770533752	90	1	6	11	1	1	0.191173541067505	1
370	1	[448.30000000074506]	2	0	0.458605074643271	0.541394925356729	91	1	7	11	1	1	0.082789850713458	1
370	0	[626.1999999992549]	2	1	0.565218284527884	0.434781715472115	93	1	8	11	1	1	0.130436569055769	1
370	1	[462.29999999701977]	2	1	0.510525340294984	0.489474659705015	85	0	9	11	1	1	0.021050680589969	0
370	1	[438.8999999985099]	2	0	0.461634635192588	0.538365364807411	89	1	10	11	1	1	0.076730729614823	1
370	1	[438.69999999925494]	2	0	0.423585817001057	0.576414182998942	92	1	11	11	1	1	0.152828365997885	1
370	1	[417.5]	2	0	0.475186042572079	0.52481395742792	92	1	12	11	1	1	0.049627914855841	1
370	1	[660.8000000007451]	2	1	0.552813166154922	0.447186833845077	91	0	13	11	1	1	0.105626332309845	0
370	1	[430.79999999701977]	2	0	0.441246261394789	0.55875373860521	88	1	14	11	1	1	0.117507477210421	1
370	0	[647.3000000007451]	2	1	0.530196233275925	0.469803766724075	93	1	15	11	1	1	0.06039246655185	1
370	0	[515.3999999985099]	2	1	0.57678028197641	0.423219718023589	97	1	16	11	1	1	0.153560563952821	1
370	1	[457.80000000074506]	2	0	0.479981461400755	0.520018538599245	100	1	17	11	1	1	0.04003707719849	1
370	1	[495.1000000014901]	2	1	0.513071145546624	0.486928854453375	95	0	18	11	1	1	0.026142291093249	0
370	0	[637.5]	2	1	0.553545360483601	0.446454639516398	100	1	19	11	1	1	0.107090720967203	1
370	0	[723.5]	2	1	0.574974990987353	0.425025009012646	100	1	20	11	1	1	0.149949981974707	1
370	0	[580.8000000007451]	2	1	0.590471635079215	0.409528364920784	100	1	21	11	1	1	0.180943270158431	1
370	1	[491.3999999985099]	2	0	0.483908826798631	0.516091173201368	100	1	22	11	1	1	0.032182346402737	1
370	0	[541.3000000007451]	2	1	0.563819367541453	0.436180632458546	100	1	23	11	1	1	0.127638735082907	1
370	0	[629.4000000022352]	2	1	0.559950326981178	0.440049673018821	100	1	24	11	1	1	0.119900653962357	1
370	1	[446.19999999925494]	2	0	0.453701778658478	0.546298221341521	100	1	25	11	1	1	0.092596442683043	1
370	1	[480]	2	0	0.414157881439996	0.585842118560003	65	0	1	12	0	1	0.171684237120007	0
370	0	[556]	2	0	0.485639980647218	0.514360019352781	68	1	2	12	0	1	0.028720038705563	1
370	0	[472.69999999925494]	2	1	0.50102136124017	0.498978638759829	59	0	3	12	0	1	0.00204272248034104	0
370	1	[662.4000000022352]	2	1	0.552851049551876	0.447148950448123	63	1	4	12	0	1	0.105702099103753	1
370	0	[705.1000000014901]	2	1	0.50941108007806	0.490588919921939	57	0	5	12	0	1	0.018822160156121	0
370	1	[459.79999999701977]	2	1	0.573570896827175	0.426429103172824	69	1	6	12	0	1	0.147141793654351	1
370	0	[506.1000000014901]	2	0	0.493359473871632	0.506640526128367	67	1	7	12	0	1	0.013281052256735	1
370	0	[612.8999999985099]	2	0	0.414027767663067	0.585972232336932	73	1	8	12	0	1	0.171944464673865	1
370	1	[832.5]	2	1	0.531884463013289	0.46811553698671	75	1	9	12	0	1	0.063768926026579	1
370	0	[442.0999999977648]	2	0	0.400676172403821	0.599323827596178	81	1	10	12	0	1	0.198647655192357	1
370	1	[484.3999999985099]	2	1	0.59052313229076	0.409476867709239	84	1	11	12	0	1	0.181046264581521	1
370	0	[457.19999999925494]	2	0	0.449334664284398	0.550665335715601	81	1	12	12	0	1	0.101330671431203	1
370	0	[472]	2	0	0.428611705488663	0.571388294511336	85	1	13	12	0	1	0.142776589022673	1
370	1	[492.5]	2	1	0.564342696394801	0.435657303605198	88	1	14	12	0	1	0.128685392789603	1
370	0	[429.4000000022352]	2	0	0.4240211822543	0.575978817745699	85	1	15	12	0	1	0.151957635491399	1
370	0	[441.1000000014901]	2	0	0.468420007402679	0.53157999259732	85	1	16	12	0	1	0.0631599851946411	1
370	1	[492.20000000298023]	2	1	0.573543574573151	0.426456425426848	91	1	17	12	0	1	0.147087149146303	1
370	0	[449.20000000298023]	2	0	0.421671737921312	0.578328262078687	95	1	18	12	0	1	0.156656524157375	1
370	1	[441.70000000298023]	2	1	0.561980033925686	0.438019966074313	98	1	19	12	0	1	0.123960067851373	1
370	1	[585]	2	1	0.557912650590879	0.44208734940912	100	1	20	12	0	1	0.115825301181759	1
370	0	[631.8999999985099]	2	1	0.510495138922945	0.489504861077055	97	0	21	12	0	1	0.02099027784589	0
370	0	[457.3999999985099]	2	0	0.424278601292602	0.575721398707397	99	1	22	12	0	1	0.151442797414795	1
370	0	[609.8999999985099]	2	0	0.476305960476552	0.523694039523447	100	1	23	12	0	1	0.047388079046895	1
370	1	[608.1000000014901]	2	1	0.551359957365612	0.448640042634387	100	1	24	12	0	1	0.102719914731225	1
370	0	[683.3000000007451]	2	1	0.528009999152004	0.471990000847996	99	0	25	12	0	1	0.0560199983040079	0
