ID	choice	rt	choice_cond	state	contrast_left	contrast_right	mu	correct	trials	blocks	contrast	congruence	con_diff_choice	ecoperf
279	1	[613.7000000029802]	2	1	0.579252407282523	0.420747592717476	50	0	1	1	1	1	0.158504814565047	0
279	1	[372.6000000089407]	2	1	0.586455715639995	0.413544284360004	56	0	2	1	1	1	0.172911431279991	0
279	1	[500.6000000089407]	2	0	0.479474519042769	0.520525480957231	65	1	3	1	1	1	0.0410509619144619	1
279	1	[399.09999999403954]	2	0	0.425727276130668	0.574272723869331	76	1	4	1	1	1	0.148545447738663	1
279	1	[554.9000000059605]	2	1	0.509163220127399	0.4908367798726	76	0	5	1	1	1	0.018326440254799	0
279	0	[550.1000000089407]	2	1	0.545795513856355	0.454204486143644	81	1	6	1	1	1	0.091591027712711	1
279	1	[512.1999999880791]	2	0	0.482124718299889	0.51787528170011	86	1	7	1	1	1	0.035750563400221	1
279	0	[817]	2	1	0.535730230644133	0.464269769355866	87	1	8	1	1	1	0.0714604612882671	1
279	1	[479.90000000596046]	2	0	0.467967011254939	0.53203298874506	92	1	9	1	1	1	0.064065977490121	1
279	1	[440.5]	2	0	0.493139101234768	0.506860898765231	86	1	10	1	1	1	0.013721797530463	1
279	1	[470.3999999910593]	2	0	0.489793147053013	0.510206852946986	89	1	11	1	1	1	0.020413705893973	1
279	0	[680.5999999940395]	2	1	0.531090197736892	0.468909802263107	88	1	12	1	1	1	0.062180395473785	1
279	1	[603.2999999970198]	2	1	0.503607006531483	0.496392993468516	90	0	13	1	1	1	0.00721401306296704	0
279	0	[537.5]	2	1	0.569150399773731	0.430849600226268	96	1	14	1	1	1	0.138300799547463	1
279	1	[402.29999999701977]	2	0	0.419968730729929	0.58003126927007	96	1	15	1	1	1	0.160062538540141	1
279	1	[966]	2	0	0.495678644951731	0.504321355048268	97	1	16	1	1	1	0.00864271009653705	1
279	1	[606]	2	0	0.410505448146065	0.589494551853934	99	1	17	1	1	1	0.178989103707869	1
279	1	[631.6000000089407]	2	0	0.455384116050085	0.544615883949914	94	1	18	1	1	1	0.089231767899829	1
279	1	[449.20000000298023]	2	0	0.493311410853591	0.506688589146408	96	1	19	1	1	1	0.013377178292817	1
279	0	[487.1000000089407]	2	1	0.551388202637813	0.448611797362187	97	1	20	1	1	1	0.102776405275626	1
279	1	[448.6000000089407]	2	1	0.526534774084706	0.473465225915293	98	0	21	1	1	1	0.053069548169413	0
279	1	[408]	2	1	0.510710523791804	0.489289476208195	96	0	22	1	1	1	0.021421047583609	0
279	1	[419.79999999701977]	2	0	0.434721291083444	0.565278708916556	96	1	23	1	1	1	0.130557417833112	1
279	1	[379.6000000089407]	2	1	0.500779441113852	0.499220558886147	96	0	24	1	1	1	0.00155888222770495	0
279	0	[512.0999999940395]	2	1	0.572225378545694	0.427774621454305	96	1	25	1	1	1	0.144450757091389	1
279	1	[720.4000000059605]	1	0	0.462072572800443	0.537927427199556	50	0	1	2	1	1	0.075854854399113	1
279	1	[859.7000000029802]	1	0	0.483184940193438	0.516815059806561	50	1	2	2	1	1	0.033630119613123	1
279	1	[290.09999999403954]	1	1	0.535941876008484	0.464058123991515	50	0	3	2	1	1	0.0718837520169689	0
279	0	[453.1000000089407]	1	1	0.572180380683617	0.427819619316382	50	0	4	2	1	1	0.144360761367235	1
279	1	[438.29999999701977]	1	1	0.544796998351494	0.455203001648505	50	0	5	2	1	1	0.089593996702989	0
279	1	[480.5]	1	0	0.402182731774536	0.597817268225463	50	0	6	2	1	1	0.195634536450927	1
279	0	[408.3999999910593]	1	1	0.586429019760263	0.413570980239736	50	1	7	2	1	1	0.172858039520527	1
279	0	[440.79999999701977]	1	1	0.542858978613371	0.457141021386628	50	0	8	2	1	1	0.085717957226743	1
279	0	[434.1000000089407]	1	1	0.564733017482858	0.435266982517141	50	1	9	2	1	1	0.129466034965717	1
279	1	[455.29999999701977]	1	1	0.556017402159447	0.443982597840552	50	1	10	2	1	1	0.112034804318895	0
279	0	[728.7999999970198]	1	0	0.487647352120344	0.512352647879656	50	0	11	2	1	1	0.024705295759312	0
279	1	[808.6000000089407]	1	0	0.492725962512456	0.507274037487544	50	1	12	2	1	1	0.014548074975088	1
279	0	[511.80000001192093]	1	1	0.562001116002188	0.437998883997811	50	1	13	2	1	1	0.124002232004377	1
279	0	[652.1000000089407]	1	1	0.511886792523721	0.488113207476278	57	1	14	2	1	1	0.023773585047443	1
279	1	[420.69999998807907]	1	0	0.43609354331587	0.563906456684129	50	1	15	2	1	1	0.127812913368259	1
279	1	[428.09999999403954]	1	0	0.491706939451487	0.508293060548512	69	1	16	2	1	1	0.016586121097025	1
279	1	[424.5]	1	0	0.449581846981688	0.550418153018311	60	0	17	2	1	1	0.100836306036623	1
279	1	[393.29999999701977]	1	0	0.442632412586524	0.557367587413475	65	1	18	2	1	1	0.114735174826951	1
279	1	[386]	1	0	0.465952655444713	0.534047344555286	63	0	19	2	1	1	0.068094689110573	1
279	1	[380.59999999403954]	1	1	0.514934157012332	0.485065842987667	65	0	20	2	1	1	0.0298683140246651	0
279	0	[414.20000000298023]	1	1	0.593870872195649	0.40612912780435	50	0	21	2	1	1	0.187741744391299	1
279	0	[604]	1	1	0.540993568232427	0.459006431767573	57	1	22	2	1	1	0.0819871364648539	1
279	1	[406.79999999701977]	1	0	0.433410534878405	0.566589465121594	61	1	23	2	1	1	0.133178930243189	1
279	0	[812.9000000059605]	1	1	0.541994683023923	0.458005316976076	60	1	24	2	1	1	0.083989366047847	1
279	1	[367.5]	1	0	0.458040865258221	0.541959134741778	62	1	25	2	1	1	0.083918269483557	1
279	0	[732.4000000059605]	3	1	0.910793653166766	0.0892063468332332	50	1	1	3	0	0	0.821587306333533	0
279	1	[393.29999999701977]	3	0	0.11416358103988	0.885836418960119	50	0	2	3	0	0	0.771672837920239	0
279	0	[414.5]	3	1	0.89261455922178	0.107385440778219	50	0	3	3	0	0	0.785229118443561	0
279	0	[380.79999999701977]	3	0	0.112919085113228	0.887080914886771	50	0	4	3	0	0	0.774161829773543	1
279	0	[438.8999999910593]	3	1	0.939353968609455	0.0606460313905443	50	1	5	3	0	0	0.878707937218911	0
279	0	[425.70000000298023]	3	1	0.93547594097836	0.0645240590216393	50	0	6	3	0	0	0.870951881956721	0
279	1	[404.59999999403954]	3	0	0.0856168078846711	0.914383192115328	43	0	7	3	0	0	0.828766384230657	0
279	1	[593.1999999880791]	3	1	0.86827452998631	0.131725470013689	41	1	8	3	0	0	0.736549059972621	1
279	0	[614.2000000029802]	3	0	0.0839471952527966	0.916052804747203	33	1	9	3	0	0	0.832105609494406	1
279	1	[382.30000001192093]	3	1	0.862848011813896	0.137151988186103	23	1	10	3	0	0	0.725696023627793	1
279	0	[428.59999999403954]	3	0	0.0686820429664274	0.931317957033572	33	0	11	3	0	0	0.862635914067145	1
279	0	[542.7000000029802]	3	0	0.106414397031197	0.893585602968802	26	1	12	3	0	0	0.787171205937605	1
279	0	[423.09999999403954]	3	0	0.0560167156566486	0.943983284343351	28	0	13	3	0	0	0.887966568686702	1
279	1	[966.0999999940395]	3	1	0.867696269706632	0.132303730293367	26	1	14	3	0	0	0.735392539413265	1
279	1	[593.0999999940395]	3	1	0.907940572419732	0.0920594275802675	29	1	15	3	0	0	0.815881144839465	1
279	1	[381.5]	3	1	0.925137765115152	0.0748622348848473	42	0	16	3	0	0	0.850275530230305	1
279	1	[358.3999999910593]	3	1	0.900798461866141	0.0992015381338587	35	1	17	3	0	0	0.801596923732282	1
279	0	[482.5]	3	0	0.0839243063953387	0.916075693604661	34	1	18	3	0	0	0.832151387209322	1
279	1	[321.1000000089407]	3	1	0.932306111157173	0.0676938888428267	34	1	19	3	0	0	0.864612222314346	1
279	0	[380.30000001192093]	3	0	0.0977122306024155	0.902287769397584	32	1	20	3	0	0	0.804575538795169	1
279	0	[402.20000000298023]	3	0	0.0767084470396159	0.923291552960384	32	1	21	3	0	0	0.846583105920768	1
279	1	[526.5]	3	1	0.852759852699028	0.147240147300971	22	1	22	3	0	0	0.705519705398057	1
279	0	[366.20000000298023]	3	0	0.0757979870435164	0.924202012956483	23	0	23	3	0	0	0.848404025912967	1
279	0	[413.5]	3	0	0.120666729749482	0.879333270250517	23	1	24	3	0	0	0.758666540501035	1
279	1	[445]	3	1	0.927874003604279	0.0721259963957203	24	0	25	3	0	0	0.855748007208559	1
279	0	[383.5]	3	0	0.0591782718224046	0.940821728177595	50	1	1	4	1	0	0.88164345635519	0
279	1	[691.8999999910593]	3	1	0.900915522149243	0.0990844778507569	50	0	2	4	1	0	0.801831044298486	0
279	1	[521.4000000059605]	3	1	0.904257740071442	0.095742259928558	50	1	3	4	1	0	0.808515480142884	0
279	0	[421.29999999701977]	3	0	0.149509691729152	0.850490308270847	50	0	4	4	1	0	0.700980616541695	0
279	1	[445.80000001192093]	3	1	0.904833757506107	0.0951662424938929	50	0	5	4	1	0	0.809667515012214	0
279	0	[369.09999999403954]	3	0	0.138612336675885	0.861387663324114	57	1	6	4	1	0	0.722775326648229	0
279	0	[334.20000000298023]	3	0	0.0808078900142106	0.919192109985789	50	0	7	4	1	0	0.838384219971578	0
279	0	[319.5]	3	0	0.13504953855969	0.864950461440309	50	0	8	4	1	0	0.729900922880619	0
279	1	[443.69999998807907]	3	1	0.902258845340568	0.0977411546594319	56	1	9	4	1	0	0.804517690681136	0
279	0	[314]	3	0	0.119333457064245	0.880666542935754	50	0	10	4	1	0	0.761333085871509	0
279	1	[359]	3	0	0.130801117161137	0.869198882838862	50	1	11	4	1	0	0.738397765677725	1
279	1	[425.70000000298023]	3	0	0.147733766100552	0.852266233899447	50	0	12	4	1	0	0.704532467798895	1
279	0	[466.19999998807907]	3	1	0.92546044540482	0.0745395545951799	50	1	13	4	1	0	0.85092089080964	1
279	0	[408.5]	3	1	0.917179519724928	0.0828204802750715	50	0	14	4	1	0	0.834359039449856	1
279	1	[365.59999999403954]	3	1	0.853805308203102	0.146194691796897	50	0	15	4	1	0	0.707610616406205	0
279	1	[595.4000000059605]	3	1	0.855470629608038	0.144529370391962	46	0	16	4	1	0	0.710941259216076	0
279	1	[478]	3	1	0.905904823943485	0.0940951760565146	38	0	17	4	1	0	0.81180964788697	0
279	1	[523.0999999940395]	3	0	0.105638385538554	0.894361614461445	35	1	18	4	1	0	0.788723228922891	1
279	1	[412.59999999403954]	3	0	0.0967179472987421	0.903282052701257	40	0	19	4	1	0	0.806564105402515	1
279	1	[470.09999999403954]	3	1	0.913362578850329	0.08663742114967	41	1	20	4	1	0	0.826725157700659	0
279	1	[575.2000000029802]	3	1	0.872308813626382	0.127691186373617	33	0	21	4	1	0	0.744617627252765	0
279	0	[450.30000001192093]	3	1	0.882677552502493	0.117322447497506	30	1	22	4	1	0	0.765355105004987	1
279	1	[320.29999999701977]	3	0	0.0697776597041494	0.93022234029585	27	1	23	4	1	0	0.860444680591701	1
279	1	[309.5]	3	0	0.1294770200942	0.870522979905799	23	1	24	4	1	0	0.741045959811599	1
279	0	[401.59999999403954]	3	1	0.94458139381135	0.0554186061886499	20	0	25	4	1	0	0.8891627876227	1
279	0	[691.9000000059605,781.2000000029802]	3	1	0.87603223929578	0.123967760704219	50	1	1	5	1	1	0.752064478591561	1
279	0	[439.19999998807907]	3	0	0.141367407973373	0.858632592026626	50	1	2	5	1	1	0.717265184053253	0
279	1	[417.79999999701977]	3	1	0.897968909961903	0.102031090038096	50	1	3	5	1	1	0.795937819923807	0
279	1	[411.90000000596046]	3	1	0.931490782076418	0.0685092179235811	50	0	4	5	1	1	0.862981564152837	0
279	1	[393.70000000298023]	3	1	0.916727280640607	0.0832727193593923	50	0	5	5	1	1	0.833454561281215	0
279	0	[374.5]	3	0	0.0905895723800069	0.909410427619993	57	0	6	5	1	1	0.818820855239986	0
279	1	[364.30000001192093]	3	0	0.0561580391123138	0.943841960887686	50	0	7	5	1	1	0.887683921775372	1
279	1	[491.59999999403954]	3	1	0.886062183439743	0.113937816560256	50	1	8	5	1	1	0.772124366879487	0
279	0	[374.79999999701977]	3	0	0.0692087100234367	0.930791289976563	50	0	9	5	1	1	0.861582579953126	0
279	0	[345.79999999701977]	3	1	0.948498541923822	0.0515014580761777	55	1	10	5	1	1	0.896997083847644	1
279	1	[400.40000000596046]	3	0	0.126390135965621	0.873609864034378	57	1	11	5	1	1	0.747219728068757	1
279	0	[343.79999999701977]	3	1	0.884269230445666	0.115730769554333	55	0	12	5	1	1	0.768538460891333	1
279	1	[339.79999999701977]	3	0	0.148112886358043	0.851887113641956	63	1	13	5	1	1	0.703774227283913	1
279	1	[333]	3	0	0.121559299324985	0.878440700675014	68	1	14	5	1	1	0.756881401350029	1
279	1	[401.5]	3	0	0.107768081127253	0.892231918872746	60	0	15	5	1	1	0.784463837745493	1
279	1	[338.09999999403954]	3	0	0.133888601608271	0.866111398391728	68	1	16	5	1	1	0.732222796783457	1
279	0	[649.6000000089407]	3	1	0.936101431831882	0.0638985681681179	71	1	17	5	1	1	0.872202863663764	1
279	1	[286.79999999701977]	3	0	0.0770894326246016	0.922910567375398	69	0	18	5	1	1	0.845821134750796	1
279	0	[397.70000000298023]	3	1	0.907094598333778	0.0929054016662212	74	1	19	5	1	1	0.814189196667557	1
279	0	[341.29999999701977]	3	1	0.918931536703578	0.0810684632964212	75	1	20	5	1	1	0.837863073407157	1
279	1	[342.69999998807907]	3	0	0.0771029758844357	0.922897024115564	79	1	21	5	1	1	0.845794048231128	1
279	1	[353.3999999910593]	3	0	0.14903457204709	0.850965427952909	83	1	22	5	1	1	0.701930855905819	1
279	0	[414.70000000298023]	3	1	0.90816937188881	0.09183062811119	77	0	23	5	1	1	0.81633874377762	1
279	0	[421.8999999910593]	3	1	0.897364308510806	0.102635691489193	79	1	24	5	1	1	0.794728617021613	1
279	1	[351.29999999701977]	3	0	0.0871072733468543	0.912892726653145	81	1	25	5	1	1	0.825785453306291	1
279	0	[514.7000000029802]	1	1	0.594290613930327	0.405709386069672	50	1	1	6	0	0	0.188581227860655	0
279	0	[390]	1	1	0.519637844303483	0.480362155696516	50	0	2	6	0	0	0.039275688606967	0
279	1	[367.69999998807907]	1	0	0.496689548559066	0.503310451440933	50	0	3	6	0	0	0.00662090288186701	0
279	1	[445.1000000089407]	1	0	0.453431919824455	0.546568080175544	53	1	4	6	0	0	0.093136160351089	0
279	1	[446.79999999701977]	1	0	0.425292924043711	0.574707075956288	50	0	5	6	0	0	0.149414151912577	0
279	0	[476.20000000298023]	1	0	0.467252795601315	0.532747204398684	50	1	6	6	0	0	0.065494408797369	1
279	0	[414.40000000596046]	1	0	0.444828505736867	0.555171494263132	50	0	7	6	0	0	0.110342988526265	1
279	1	[564.4000000059605]	1	0	0.402775083200463	0.597224916799536	50	0	8	6	0	0	0.194449833599073	0
279	0	[421.30000001192093]	1	1	0.566068421163573	0.433931578836426	50	1	9	6	0	0	0.132136842327147	0
279	0	[550.7000000029802]	1	1	0.555081523905667	0.444918476094332	50	0	10	6	0	0	0.110163047811335	0
279	0	[624.2999999970198]	1	1	0.508186666875151	0.491813333124848	50	0	11	6	0	0	0.016373333750303	0
279	0	[391.3999999910593]	1	1	0.594193546885423	0.405806453114576	46	0	12	6	0	0	0.188387093770847	0
279	1	[714.5]	1	1	0.540112561146044	0.459887438853955	44	1	13	6	0	0	0.080225122292089	1
279	1	[472.79999999701977]	1	1	0.534676203846114	0.465323796153885	45	0	14	6	0	0	0.069352407692229	1
279	0	[471.5]	1	1	0.50402981285691	0.495970187143089	50	0	15	6	0	0	0.00805962571382096	0
279	0	[470.90000000596046]	1	0	0.436306036188796	0.563693963811203	42	0	16	6	0	0	0.127387927622407	1
279	0	[590.2999999970198]	1	0	0.444956876603765	0.555043123396234	45	1	17	6	0	0	0.110086246792469	1
279	1	[841.7000000029802]	1	1	0.500190772842762	0.499809227157237	42	0	18	6	0	0	0.000381545685525009	1
279	1	[526.0999999940395]	1	1	0.574178359590274	0.425821640409725	41	1	19	6	0	0	0.148356719180549	1
279	0	[532.2999999970198]	1	0	0.461985828132281	0.538014171867718	38	1	20	6	0	0	0.076028343735437	1
279	0	[409.59999999403954]	1	0	0.410202176140525	0.589797823859474	31	1	21	6	0	0	0.179595647718949	1
279	0	[773.6000000089407]	1	0	0.491273390099381	0.508726609900618	33	0	22	6	0	0	0.017453219801237	1
279	0	[488.59999999403954]	1	0	0.464580086939845	0.535419913060154	29	1	23	6	0	0	0.070839826120309	1
279	0	[813.5999999940395]	1	0	0.428669595980152	0.571330404019847	33	1	24	6	0	0	0.142660808039695	1
279	1	[644.5]	1	1	0.508171024528638	0.491828975471361	29	0	25	6	0	0	0.016342049057277	1
279	0	[552.2999999970198]	3	0	0.0814035521865626	0.918596447813437	100	1	1	7	0	1	0.837192895626874	1
279	0	[675.1999999880791]	3	0	0.0550654338262165	0.944934566173783	50	0	2	7	0	1	0.889869132347566	1
279	1	[980.5999999940395]	3	1	0.928772313391363	0.0712276866086367	35	0	3	7	0	1	0.857544626782726	1
279	1	[699.2999999970198]	3	1	0.933136654717149	0.0668633452828506	50	1	4	7	0	1	0.866273309434298	1
279	0	[550.7999999970198]	3	0	0.0556758174665358	0.944324182533464	60	1	5	7	0	1	0.888648365066928	1
279	1	[572.8999999910593]	3	1	0.915018290101178	0.0849817098988212	50	0	6	7	0	1	0.830036580202357	1
279	0	[342.29999999701977]	3	0	0.089690527945293	0.910309472054706	64	1	7	7	0	1	0.820618944109413	1
279	0	[442.3999999910593]	3	0	0.085912866519048	0.914087133480951	57	0	8	7	0	1	0.828174266961903	1
279	1	[442.40000000596046]	3	1	0.935352812938163	0.0646471870618368	64	1	9	7	0	1	0.870705625876326	1
279	1	[370.59999999403954]	3	1	0.877334234332108	0.122665765667891	73	1	10	7	0	1	0.754668468664217	1
279	1	[387.6000000089407]	3	1	0.867530580777664	0.132469419222335	77	1	11	7	0	1	0.735061161555329	1
279	1	[378.5]	3	1	0.912702772469086	0.0872972275309138	80	1	12	7	0	1	0.825405544938172	1
279	0	[756.2000000029802]	3	0	0.121901109277211	0.878098890722788	86	1	13	7	0	1	0.756197781445577	1
279	1	[308.70000000298023]	3	1	0.878974310435553	0.121025689564446	81	0	14	7	0	1	0.757948620871107	1
279	1	[367.90000000596046]	3	1	0.885680552265401	0.114319447734598	87	1	15	7	0	1	0.771361104530803	1
279	1	[373.90000000596046]	3	1	0.875177959402147	0.124822040597852	73	0	16	7	0	1	0.750355918804295	1
279	0	[848]	3	0	0.121480484952602	0.878519515047397	72	0	17	7	0	1	0.757039030094795	1
279	0	[742.5999999940395]	3	0	0.146977318022009	0.85302268197799	77	1	18	7	0	1	0.706045363955981	1
279	1	[410.79999999701977]	3	1	0.905361279986354	0.0946387200136459	78	1	19	7	0	1	0.810722559972708	1
279	0	[291.5]	3	0	0.142837400377048	0.857162599622951	82	1	20	7	0	1	0.714325199245903	1
279	1	[361.59999999403954]	3	1	0.9277875143661	0.0722124856338994	82	1	21	7	0	1	0.855575028732201	1
279	0	[374.20000000298023]	3	0	0.0593042521436582	0.940695747856341	80	1	22	7	0	1	0.881391495712683	1
279	0	[783.2000000029802]	3	0	0.0608488654352078	0.939151134564792	82	0	23	7	0	1	0.878302269129584	1
279	0	[431.69999998807907,801.2999999970198]	3	0	0.121873630575976	0.878126369424023	85	1	24	7	0	1	0.756252738848047	1
279	1	[372.5]	3	1	0.920284220575054	0.0797157794249453	82	0	25	7	0	1	0.840568441150109	1
279	0	[412.70000000298023]	2	0	0.446858367572567	0.553141632427432	64	1	1	8	0	1	0.106283264854865	1
279	1	[529.4000000059605]	2	1	0.599194901703906	0.400805098296093	83	1	2	8	0	1	0.198389803407813	1
279	0	[419.29999999701977]	2	0	0.460456229036499	0.5395437709635	100	1	3	8	0	1	0.079087541927001	1
279	1	[974.6999999880791]	2	1	0.529523207835269	0.47047679216473	95	1	4	8	0	1	0.059046415670539	1
279	0	[461.8999999910593]	2	0	0.407108530559708	0.592891469440291	100	1	5	8	0	1	0.185782938880583	1
279	0	[416.59999999403954]	2	0	0.473811982820136	0.526188017179863	100	1	6	8	0	1	0.052376034359727	1
279	0	[409.8999999910593]	2	0	0.426285575961283	0.573714424038716	100	1	7	8	0	1	0.147428848077433	1
279	1	[448.09999999403954]	2	1	0.595890212560524	0.404109787439475	100	1	8	8	0	1	0.191780425121049	1
279	1	[422.70000000298023]	2	1	0.596612528031204	0.403387471968795	100	1	9	8	0	1	0.193225056062409	1
279	0	[425.1000000089407]	2	0	0.400481426858985	0.599518573141014	100	1	10	8	0	1	0.199037146282029	1
279	0	[504.8999999910593]	2	0	0.494969570891276	0.505030429108723	100	1	11	8	0	1	0.010060858217447	1
279	0	[442]	2	1	0.503328311193312	0.496671688806687	98	0	12	8	0	1	0.00665662238662501	0
279	0	[440.30000001192093]	2	0	0.460784022510308	0.539215977489691	100	1	13	8	0	1	0.078431954979383	1
279	1	[989.4000000059605]	2	0	0.496700625334715	0.503299374665284	100	0	14	8	0	1	0.00659874933056898	0
279	1	[525.2999999970198]	2	1	0.535649600221534	0.464350399778466	100	1	15	8	0	1	0.071299200443068	1
279	0	[461.20000000298023]	2	0	0.48086802621696	0.519131973783039	100	1	16	8	0	1	0.038263947566079	1
279	1	[474.90000000596046]	2	1	0.542794734319405	0.457205265680594	100	1	17	8	0	1	0.085589468638811	1
279	1	[492.5]	2	1	0.55553789346693	0.444462106533069	100	1	18	8	0	1	0.111075786933861	1
279	1	[509.20000000298023]	2	1	0.556973367299863	0.443026632700136	100	1	19	8	0	1	0.113946734599727	1
279	0	[532.9000000059605]	2	0	0.449242107661849	0.55075789233815	100	1	20	8	0	1	0.101515784676301	1
279	1	[905.7000000029802]	2	1	0.537066181805602	0.462933818194397	100	1	21	8	0	1	0.074132363611205	1
279	0	[449.6000000089407]	2	0	0.432940965365718	0.567059034634281	100	1	22	8	0	1	0.134118069268563	1
279	1	[927]	2	1	0.507457662822151	0.492542337177848	100	1	23	8	0	1	0.014915325644303	1
279	1	[415.5]	2	1	0.57374149540053	0.426258504599469	100	1	24	8	0	1	0.147482990801061	1
279	0	[699.3000000119209]	2	1	0.51376792862726	0.48623207137274	100	0	25	8	0	1	0.02753585725452	0
279	0	[407.20000000298023]	1	1	0.542417317067697	0.457582682932302	50	1	1	9	0	1	0.084834634135395	0
279	0	[418.40000000596046]	1	1	0.536405854423629	0.46359414557637	50	0	2	9	0	1	0.072811708847259	0
279	0	[510.3999999910593]	1	0	0.499983499120818	0.500016500879181	50	1	3	9	0	1	3.3001758363016e-05	1
279	0	[273.79999999701977]	1	1	0.558138587608523	0.441861412391476	57	1	4	9	0	1	0.116277175217047	0
279	0	[632.2999999970198]	1	1	0.522960905074256	0.477039094925744	50	0	5	9	0	1	0.045921810148512	0
279	1	[436.3999999910593]	1	0	0.45009451127548	0.549905488724519	60	1	6	9	0	1	0.0998109774490391	0
279	1	[505.3999999910593]	1	0	0.451926699191366	0.548073300808633	42	0	7	9	0	1	0.096146601617267	0
279	1	[486]	1	0	0.493111442521126	0.506888557478874	50	0	8	9	0	1	0.013777114957748	0
279	0	[367.80000001192093]	1	1	0.539913070789491	0.460086929210508	50	0	9	9	0	1	0.079826141578983	0
279	0	[445.5]	1	0	0.459065760638259	0.54093423936174	50	0	10	9	0	1	0.081868478723481	1
279	1	[339.29999999701977]	1	0	0.461790090017621	0.538209909982378	50	0	11	9	0	1	0.0764198199647571	0
279	1	[490.40000000596046]	1	0	0.470512625463144	0.529487374536855	50	1	12	9	0	1	0.058974749073711	0
279	1	[599.7999999970198]	1	1	0.532111483467706	0.467888516532293	50	1	13	9	0	1	0.064222966935413	1
279	1	[440.8999999910593]	1	0	0.491355419876607	0.508644580123393	50	0	14	9	0	1	0.017289160246786	0
279	0	[781.5]	1	1	0.527034676022419	0.47296532397758	50	0	15	9	0	1	0.054069352044839	0
279	1	[519.7000000029802]	1	1	0.555804635687621	0.444195364312378	50	0	16	9	0	1	0.111609271375243	1
279	1	[444.1000000089407]	1	0	0.465652208215192	0.534347791784807	50	0	17	9	0	1	0.068695583569615	0
279	0	[460.19999998807907]	1	1	0.58335834684119	0.416641653158809	50	0	18	9	0	1	0.166716693682381	0
279	0	[371.8999999910593]	1	0	0.455583488347362	0.544416511652637	50	1	19	9	0	1	0.088833023305275	1
279	1	[468.90000000596046]	1	1	0.55124759821957	0.448752401780429	50	1	20	9	0	1	0.102495196439141	1
279	0	[482.8999999910593]	1	0	0.463105239720172	0.536894760279827	50	0	21	9	0	1	0.073789520559655	1
279	1	[434.79999999701977]	1	1	0.545049432755069	0.45495056724493	50	1	22	9	0	1	0.090098865510139	1
279	1	[659.1999999880791]	1	1	0.526832742543465	0.473167257456534	58	1	23	9	0	1	0.053665485086931	1
279	0	[626.5]	1	0	0.48350660661899	0.516493393381009	59	1	24	9	0	1	0.032986786762019	1
279	1	[538.9000000059605]	1	1	0.507313266842987	0.492686733157012	57	0	25	9	0	1	0.0146265336859751	1
279	1	[517.2000000029802]	2	1	0.535916314629734	0.464083685370265	50	1	1	10	0	0	0.071832629259469	1
279	0	[309.5]	2	0	0.480373573238361	0.519626426761638	35	1	2	10	0	0	0.039252853523277	1
279	0	[853.5]	2	0	0.49299856983712	0.507001430162879	29	1	3	10	0	0	0.014002860325759	1
279	1	[821.5]	2	1	0.515880835589938	0.484119164410061	16	1	4	10	0	0	0.031761671179877	1
279	1	[423.59999999403954]	2	1	0.578188646520349	0.42181135347965	0	1	5	10	0	0	0.156377293040699	1
279	0	[417.70000000298023]	2	0	0.482407941784312	0.517592058215687	0	1	6	10	0	0	0.035184116431375	1
279	1	[371.8999999910593]	2	1	0.592781745984772	0.407218254015227	0	1	7	10	0	0	0.185563491969545	1
279	0	[498.59999999403954]	2	0	0.431766479375399	0.5682335206246	0	1	8	10	0	0	0.136467041249201	1
279	0	[362.3999999910593]	2	0	0.410449357614426	0.589550642385573	0	1	9	10	0	0	0.179101284771147	1
279	1	[482.1000000089407]	2	1	0.552061591243066	0.447938408756933	0	1	10	10	0	0	0.104123182486133	1
279	1	[471.6000000089407]	2	0	0.48132703675459	0.518672963245409	1	0	11	10	0	0	0.037345926490819	0
279	0	[495.80000001192093]	2	0	0.487549229959586	0.512450770040413	0	1	12	10	0	0	0.024901540080827	1
279	1	[731.8999999910593]	2	0	0.485461710898749	0.51453828910125	2	0	13	10	0	0	0.029076578202501	0
279	0	[417.5]	2	0	0.493825933842471	0.506174066157528	0	1	14	10	0	0	0.012348132315057	1
279	0	[409.20000000298023]	2	0	0.469356889811071	0.530643110188928	0	1	15	10	0	0	0.061286220377857	1
279	1	[747.9000000059605,907.9000000059605]	2	1	0.584301824421768	0.415698175578231	0	1	16	10	0	0	0.168603648843537	1
279	1	[391.5]	2	1	0.581761666716704	0.418238333283295	0	1	17	10	0	0	0.163523333433409	1
279	1	[433.70000000298023]	2	1	0.529644007868815	0.470355992131184	0	1	18	10	0	0	0.059288015737631	1
279	0	[471.6000000089407]	2	0	0.412995752377813	0.587004247622186	0	1	19	10	0	0	0.174008495244373	1
279	1	[449]	2	1	0.538009606011476	0.461990393988523	0	1	20	10	0	0	0.076019212022953	1
279	0	[709.2999999970198]	2	0	0.423747082179395	0.576252917820604	0	1	21	10	0	0	0.152505835641209	1
279	1	[794.2999999970198]	2	0	0.497722430884536	0.502277569115464	5	0	22	10	0	0	0.00455513823092796	0
279	1	[509]	2	1	0.542887421472446	0.457112578527554	0	1	23	10	0	0	0.085774842944892	1
279	1	[423.79999999701977]	2	1	0.502300238771595	0.497699761228404	0	0	24	10	0	0	0.00460047754319104	1
279	1	[646.5]	2	1	0.582654297687275	0.417345702312724	0	0	25	10	0	0	0.165308595374551	1
279	0	[223.20000000298023]	2	0	0.415862991768924	0.584137008231075	50	0	1	11	1	0	0.168274016462151	0
279	0	[441.40000000596046]	2	1	0.516863353944225	0.483136646055774	50	1	2	11	1	0	0.033726707888451	1
279	0	[733.6000000089407]	2	1	0.503209281504556	0.496790718495443	36	1	3	11	1	0	0.00641856300911303	1
279	1	[443.29999999701977]	2	0	0.42897128356674	0.571028716433259	30	1	4	11	1	0	0.142057432866519	1
279	0	[435.6000000089407]	2	1	0.507290367069859	0.492709632930141	24	1	5	11	1	0	0.014580734139718	1
279	1	[411.09999999403954]	2	0	0.422911672393825	0.577088327606174	21	1	6	11	1	0	0.154176655212349	1
279	1	[373.79999999701977]	2	0	0.404695524463729	0.595304475536271	16	1	7	11	1	0	0.190608951072542	1
279	0	[391.09999999403954]	2	1	0.536817972775903	0.463182027224096	11	1	8	11	1	0	0.073635945551807	1
279	1	[388.8999999910593]	2	0	0.404568903979132	0.595431096020867	10	1	9	11	1	0	0.190862192041735	1
279	0	[329.29999999701977]	2	1	0.572249755006932	0.427750244993067	7	1	10	11	1	0	0.144499510013865	1
279	0	[398]	2	1	0.594725015816489	0.40527498418351	0	1	11	11	1	0	0.189450031632979	1
279	0	[332.70000000298023]	2	1	0.51903107735333	0.480968922646669	0	1	12	11	1	0	0.038062154706661	1
279	0	[363.6000000089407]	2	1	0.536498494430462	0.463501505569537	0	1	13	11	1	0	0.072996988860925	1
279	0	[341.5]	2	1	0.53622039786692	0.463779602133079	0	1	14	11	1	0	0.072440795733841	1
279	0	[297.90000000596046]	2	1	0.521324970911025	0.478675029088974	0	1	15	11	1	0	0.042649941822051	1
279	0	[313.79999999701977]	2	0	0.497050697466691	0.502949302533308	2	0	16	11	1	0	0.00589860506661705	0
279	1	[519.5]	2	0	0.466082911555863	0.533917088444136	0	1	17	11	1	0	0.067834176888273	1
279	0	[334]	2	1	0.579028518267878	0.420971481732121	0	1	18	11	1	0	0.158057036535757	1
279	1	[513]	2	0	0.463280817983422	0.536719182016577	0	1	19	11	1	0	0.073438364033155	1
279	0	[435.70000000298023]	2	0	0.496571810384726	0.503428189615273	2	0	20	11	1	0	0.00685637923054705	0
279	1	[442.59999999403954]	2	0	0.490361126586094	0.509638873413905	0	1	21	11	1	0	0.019277746827811	1
279	1	[527.7999999970198]	2	0	0.453192598757977	0.546807401242022	4	1	22	11	1	0	0.093614802484045	1
279	1	[438.70000000298023]	2	0	0.442081117852128	0.557918882147871	1	1	23	11	1	0	0.115837764295743	1
279	1	[473.20000000298023]	2	0	0.436630615513474	0.563369384486525	0	1	24	11	1	0	0.126738768973051	1
279	0	[374.5]	2	1	0.542184953275542	0.457815046724457	0	1	25	11	1	0	0.0843699065510849	1
279	0	[413.5]	1	1	0.576750410385838	0.423249589614161	50	1	1	12	1	0	0.153500820771677	1
279	0	[328.79999999701977]	1	1	0.55240340913623	0.447596590863769	50	0	2	12	1	0	0.104806818272461	1
279	0	[475.6000000089407]	1	1	0.510754422556075	0.489245577443925	50	1	3	12	1	0	0.02150884511215	1
279	0	[322.20000000298023]	1	1	0.561213159612813	0.438786840387186	39	1	4	12	1	0	0.122426319225627	1
279	0	[390]	1	1	0.539603959134222	0.460396040865777	38	0	5	12	1	0	0.079207918268445	1
279	1	[381.79999999701977]	1	0	0.462949506609694	0.537050493390305	50	0	6	12	1	0	0.074100986780611	1
279	1	[393.40000000596046]	1	0	0.432894594243021	0.567105405756978	50	1	7	12	1	0	0.134210811513957	1
279	0	[485.09999999403954]	1	0	0.499744225027689	0.50025577497231	45	1	8	12	1	0	0.000511549944620993	0
279	1	[501.30000001192093]	1	0	0.498485914964523	0.501514085035476	50	1	9	12	1	0	0.00302817007095302	1
279	0	[461.69999998807907]	1	1	0.542462008444316	0.457537991555683	40	1	10	12	1	0	0.084924016888633	1
279	1	[392.70000000298023]	1	0	0.457570409951822	0.542429590048177	36	1	11	12	1	0	0.084859180096355	1
279	0	[616.1000000089407]	1	0	0.46773966936073	0.532260330639269	32	0	12	12	1	0	0.064520661278539	0
279	1	[432.19999998807907]	1	0	0.440781132431364	0.559218867568635	24	1	13	12	1	0	0.118437735137271	1
279	1	[269.90000000596046]	1	0	0.439653904761595	0.560346095238404	23	0	14	12	1	0	0.120692190476809	1
279	0	[450.1000000089407]	1	1	0.540739457573866	0.459260542426133	21	0	15	12	1	0	0.081478915147733	1
279	1	[553.0999999940395]	1	1	0.508082700961953	0.491917299038046	20	0	16	12	1	0	0.016165401923907	0
279	1	[510.19999998807907]	1	1	0.503206139281795	0.496793860718204	15	0	17	12	1	0	0.00641227856359106	0
279	0	[413.20000000298023]	1	1	0.540507060066467	0.459492939933532	16	1	18	12	1	0	0.081014120132935	1
279	1	[461.5]	1	0	0.447464455199566	0.552535544800433	8	1	19	12	1	0	0.105071089600867	1
279	0	[393.20000000298023]	1	1	0.537188199209661	0.462811800790338	22	0	20	12	1	0	0.074376398419323	1
279	1	[356.79999999701977]	1	0	0.413568902204396	0.586431097795603	24	0	21	12	1	0	0.172862195591207	1
279	1	[332.40000000596046]	1	0	0.488850779783784	0.511149220216215	23	1	22	12	1	0	0.022298440432431	1
279	0	[365.40000000596046]	1	1	0.571017616429845	0.428982383570154	23	1	23	12	1	0	0.142035232859691	1
279	1	[390.3999999910593,430.8999999910593]	1	0	0.421804861790046	0.578195138209953	21	1	24	12	1	0	0.156390276419907	1
279	1	[420.79999999701977]	1	0	0.403766435930455	0.596233564069544	21	1	25	12	1	0	0.192467128139089	1
