ID	choice	rt	choice_cond	state	contrast_left	contrast_right	mu	correct	trials	blocks	contrast	congruence	con_diff_choice	ecoperf
192	0	[532]	3	1	0.930743535482893	0.0692564645171064	100	1	1	1	0	0	0.861487070965787	0
192	1	[464.79999999701977]	3	0	0.0820107412569514	0.917989258743048	50	0	2	1	0	0	0.835978517486097	0
192	0	[489.30000000447035]	3	1	0.857106990249206	0.142893009750793	50	0	3	1	0	0	0.714213980498413	0
192	1	[475.69999999552965]	3	0	0.112171183383097	0.887828816616902	100	1	4	1	0	0	0.775657633233805	0
192	1	[476.70000000298023]	3	0	0.125861815324907	0.874138184675092	100	0	5	1	0	0	0.748276369350185	0
192	0	[521.5]	3	1	0.854875520682136	0.145124479317863	88	0	6	1	0	0	0.709751041364273	0
192	1	[422.69999999552965]	3	0	0.0589428048892519	0.941057195110748	92	0	7	1	0	0	0.882114390221496	0
192	1	[647.8000000044703]	3	0	0.137286302723083	0.862713697276916	90	0	8	1	0	0	0.725427394553833	0
192	1	[386.30000000447035]	3	0	0.144133451274702	0.855866548725297	100	1	9	1	0	0	0.711733097450595	0
192	0	[424.69999999552965]	3	1	0.896234683405228	0.103765316594771	99	0	10	1	0	0	0.792469366810457	0
192	1	[446.79999999701977]	3	0	0.149750188973425	0.850249811026574	100	0	11	1	0	0	0.700499622053149	0
192	1	[437.40000000596046]	3	0	0.0744427430188345	0.925557256981165	88	0	12	1	0	0	0.851114513962331	0
192	1	[412.6000000014901]	3	0	0.0811501211691226	0.918849878830877	89	1	13	1	0	0	0.837699757661754	0
192	1	[393.3999999985099]	3	0	0.0833964007125943	0.916603599287405	89	0	14	1	0	0	0.833207198574811	0
192	0	[406]	3	1	0.92833525921631	0.0716647407836891	100	1	15	1	0	0	0.856670518432621	0
192	0	[412.19999999552965]	3	1	0.929092280173567	0.0709077198264327	93	0	16	1	0	0	0.858184560347134	0
192	0	[511.8999999985099]	3	1	0.918363471978693	0.0816365280213069	100	1	17	1	0	0	0.836726943957386	0
192	0	[365.5]	3	1	0.872571854139783	0.127428145860216	86	0	18	1	0	0	0.745143708279567	0
192	0	[401.80000000447035]	3	1	0.900950480468734	0.0990495195312656	99	1	19	1	0	0	0.801900960937468	0
192	0	[522.6999999955297]	3	1	0.876436209308166	0.123563790691833	89	0	20	1	0	0	0.752872418616333	0
192	1	[613.3999999985099]	3	0	0.149546602325687	0.850453397674312	100	1	21	1	0	0	0.700906795348625	0
192	0	[468.6000000014901]	3	1	0.90818319514097	0.0918168048590293	89	0	22	1	0	0	0.816366390281941	0
192	0	[467]	3	1	0.915476462884315	0.0845235371156842	92	0	23	1	0	0	0.830952925768631	0
192	1	[383.6000000014901]	3	0	0.0980350051810935	0.901964994818906	89	0	24	1	0	0	0.803929989637812	0
192	0	[414.79999999701977,926.3999999985099]	3	1	0.858998248467087	0.141001751532912	91	0	25	1	0	0	0.717996496934175	0
192	0	[798.1000000014901]	1	1	0.577405961935979	0.42259403806402	100	1	1	2	0	1	0.154811923871959	0
192	0	[960.3000000044703]	1	1	0.56187743465252	0.438122565347479	100	0	2	2	0	1	0.123754869305041	0
192	1	[697.1000000014901]	1	0	0.451414905293553	0.548585094706446	91	0	3	2	0	1	0.097170189412893	0
192	1	[559.8999999985099]	1	0	0.492553865212662	0.507446134787337	100	1	4	2	0	1	0.014892269574675	0
192	0	[797.3999999985099]	1	1	0.507289701596536	0.492710298403463	89	0	5	2	0	1	0.014579403193073	0
192	0	[656.2000000029802]	1	1	0.539282996709794	0.460717003290205	90	0	6	2	0	1	0.078565993419589	0
192	1	[394.6000000014901]	1	0	0.441030813715803	0.558969186284196	86	0	7	2	0	1	0.117938372568393	0
192	1	[710.6999999955297]	1	0	0.497332119415455	0.502667880584544	88	0	8	2	0	1	0.00533576116908901	0
192	1	[671.6999999955297]	1	0	0.42242000891256	0.577579991087439	87	0	9	2	0	1	0.155159982174879	0
192	0	[948.5]	1	1	0.528488141700497	0.471511858299502	50	1	10	2	0	1	0.056976283400995	0
192	0	[730]	1	1	0.580504342896117	0.419495657103883	85	0	11	2	0	1	0.161008685792234	0
192	1	[442.59999999403954]	1	1	0.501787322871992	0.498212677128007	85	0	12	2	0	1	0.00357464574398503	1
192	1	[631.1000000014901]	1	0	0.487030817022768	0.512969182977231	100	1	13	2	0	1	0.025938365954463	0
192	0	[685.8999999985099]	1	1	0.561342218859956	0.438657781140043	91	0	14	2	0	1	0.122684437719913	0
192	0	[642.1000000014901]	1	1	0.560066614765828	0.439933385234172	90	1	15	2	0	1	0.120133229531656	0
192	1	[655.8000000044703]	1	0	0.478195688728405	0.521804311271594	87	0	16	2	0	1	0.043608622543189	0
192	1	[749.7000000029802]	1	0	0.430257023713423	0.569742976286576	25	0	17	2	0	1	0.139485952573153	0
192	1	[621]	1	0	0.421739431609609	0.57826056839039	24	1	18	2	0	1	0.156521136780781	0
192	1	[641.0999999940395]	1	0	0.426258864715628	0.573741135284372	24	0	19	2	0	1	0.147482270568744	0
192	0	[939.0999999940395]	1	0	0.482302876104242	0.517697123895757	23	0	20	2	0	1	0.035394247791515	1
192	0	[521.3999999985099]	1	1	0.57104568651044	0.428954313489559	23	0	21	2	0	1	0.142091373020881	0
192	0	[794.7999999970198]	1	0	0.496683246680349	0.50331675331965	25	1	22	2	0	1	0.00663350663930096	1
192	0	[875.2000000029802]	1	1	0.554978249169016	0.445021750830983	16	0	23	2	0	1	0.109956498338033	0
192	1	[640.7000000029802]	1	0	0.479749656031613	0.520250343968386	23	0	24	2	0	1	0.040500687936773	0
192	0	[885.8999999985099]	1	1	0.52736077593723	0.472639224062769	22	0	25	2	0	1	0.054721551874461	0
192	1	[829.6000000014901]	1	0	0.485783260741621	0.514216739258378	24	0	1	3	1	0	0.028433478516757	1
192	1	[711.0999999940395]	1	0	0.466531819646876	0.533468180353123	29	1	2	3	1	0	0.066936360706247	1
192	0	[608.7000000029802]	1	1	0.586116703494537	0.413883296505462	28	1	3	3	1	0	0.172233406989075	1
192	1	[631.2000000029802]	1	0	0.437959970116653	0.562040029883346	25	1	4	3	1	0	0.124080059766693	1
192	0	[663.4000000059605]	1	1	0.577100139493999	0.422899860506	23	0	5	3	1	0	0.154200278987999	1
192	1	[499.1000000014901]	1	0	0.426757763335364	0.573242236664635	22	1	6	3	1	0	0.146484473329271	1
192	0	[530.4000000059605]	1	0	0.491234498124799	0.5087655018752	24	1	7	3	1	0	0.017531003750401	0
192	0	[655.1000000014901]	1	1	0.510832377816367	0.489167622183632	23	1	8	3	1	0	0.021664755632735	1
192	0	[554.6000000014901]	1	0	0.486889722024374	0.513110277975625	23	0	9	3	1	0	0.026220555951251	0
192	1	[711.2000000029802]	1	0	0.409162292757523	0.590837707242476	25	0	10	3	1	0	0.181675414484953	1
192	0	[482.20000000298023]	1	1	0.597451867931339	0.40254813206866	24	1	11	3	1	0	0.194903735862679	1
192	1	[588.2999999970198]	1	0	0.430945666190824	0.569054333809175	24	1	12	3	1	0	0.138108667618351	1
192	0	[737.3999999985099]	1	1	0.524285310898499	0.4757146891015	24	1	13	3	1	0	0.0485706217969989	1
192	0	[463.09999999403954]	1	1	0.514482274389147	0.485517725610853	23	1	14	3	1	0	0.028964548778294	1
192	0	[716.2999999970198]	1	1	0.511035753423944	0.488964246576055	24	1	15	3	1	0	0.0220715068478891	1
192	0	[557]	1	1	0.512227072106589	0.48777292789341	23	0	16	3	1	0	0.024454144213179	1
192	1	[952.3000000044703]	1	1	0.527092972693004	0.472907027306995	23	0	17	3	1	0	0.054185945386009	0
192	0	[609.7999999970198]	1	1	0.539890351706733	0.460109648293266	23	0	18	3	1	0	0.079780703413467	1
192	1	[513.8999999985099]	1	0	0.474221022299798	0.525778977700201	23	0	19	3	1	0	0.051557955400403	1
192	1	[571.8999999985099]	1	0	0.404563997112669	0.59543600288733	22	1	20	3	1	0	0.190872005774661	1
192	1	[552.8000000044703]	1	0	0.419273084633624	0.580726915366375	22	1	21	3	1	0	0.161453830732751	1
192	0	[582.6000000014901]	1	1	0.51335067864645	0.486649321353549	50	1	22	3	1	0	0.026701357292901	1
192	1	[704.2999999970198]	1	0	0.468654534068294	0.531345465931706	21	1	23	3	1	0	0.062690931863412	1
192	0	[668.0999999940395]	1	1	0.507049305732559	0.49295069426744	16	1	24	3	1	0	0.014098611465119	1
192	0	[596.7000000029802]	1	1	0.513044778279104	0.486955221720895	21	0	25	3	1	0	0.026089556558209	1
192	1	[732]	2	0	0.458083185972714	0.541916814027285	100	0	1	4	0	0	0.083833628054571	0
192	1	[536.2000000029802]	2	0	0.421933187599935	0.578066812400064	96	0	2	4	0	0	0.156133624800129	0
192	0	[536.9000000059605]	2	1	0.542386314276764	0.457613685723235	87	0	3	4	0	0	0.084772628553529	0
192	0	[893]	2	0	0.488381442003795	0.511618557996204	82	1	4	4	0	0	0.023237115992409	1
192	0	[523.5]	2	1	0.518581087948934	0.481418912051065	77	0	5	4	0	0	0.037162175897869	0
192	1	[911.5]	2	0	0.493255390386065	0.506744609613934	77	0	6	4	0	0	0.013489219227869	0
192	0	[512.7999999970198]	2	1	0.585475291124727	0.414524708875272	80	0	7	4	0	0	0.170950582249455	0
192	0	[548.1999999955297]	2	1	0.572676569894161	0.427323430105838	82	0	8	4	0	0	0.145353139788323	0
192	1	[709.3000000044703]	2	0	0.480232819063728	0.519767180936271	50	0	9	4	0	0	0.0395343618725429	0
192	1	[627.8999999985099]	2	0	0.419526711412809	0.58047328858719	82	0	10	4	0	0	0.160946577174381	0
192	0	[710.6999999955297]	2	1	0.51433720403222	0.485662795967779	80	0	11	4	0	0	0.028674408064441	0
192	1	[748.5]	2	1	0.503369499645708	0.496630500354291	84	1	12	4	0	0	0.00673899929141697	1
192	1	[587.8000000044703]	2	1	0.561861249165905	0.438138750834094	82	1	13	4	0	0	0.123722498331811	1
192	1	[430.20000000298023]	2	1	0.580554966291962	0.419445033708037	80	1	14	4	0	0	0.161109932583925	1
192	1	[851.8999999985099]	2	1	0.509161308737793	0.490838691262206	81	1	15	4	0	0	0.018322617475587	1
192	0	[944.6999999955297]	2	0	0.483756888617417	0.516243111382582	84	1	16	4	0	0	0.0324862227651651	1
192	0	[946.2000000029802]	2	0	0.469109945834971	0.530890054165028	81	1	17	4	0	0	0.061780108330057	1
192	1	[581.8999999985099]	2	1	0.589818650643917	0.410181349356082	84	1	18	4	0	0	0.179637301287835	1
192	1	[999.7999999970198]	2	0	0.475516485242075	0.524483514757924	80	0	19	4	0	0	0.048967029515849	0
192	1	[711]	2	1	0.53289312560908	0.467106874390919	79	1	20	4	0	0	0.065786251218161	1
192	1	[790.3999999985099]	2	0	0.450887495450924	0.549112504549075	80	0	21	4	0	0	0.098225009098151	0
192	1	[721.1000000014901]	2	1	0.533588320128864	0.466411679871135	81	1	22	4	0	0	0.067176640257729	1
192	1	[505.5]	2	1	0.524057458815502	0.475942541184497	83	1	23	4	0	0	0.048114917631005	1
192	0	[877.3999999985099]	2	0	0.47837495345876	0.521625046541239	83	0	24	4	0	0	0.043250093082479	1
192	1	[913.5]	2	0	0.433541902933372	0.566458097066627	79	0	25	4	0	0	0.132916194133255	0
192	1	[612.7999999970198]	3	0	0.0787432563720442	0.921256743627955	24	0	1	5	1	0	0.842513487255911	1
192	1	[465.5]	3	0	0.128056617723397	0.871943382276602	23	1	2	5	1	0	0.743886764553205	1
192	0	[932.6000000014901]	3	1	0.901945889496167	0.0980541105038323	23	0	3	5	1	0	0.803891778992335	1
192	1	[588.5]	3	0	0.132077664938361	0.867922335061638	23	1	4	5	1	0	0.735844670123277	1
192	0	[606.3999999985099]	3	1	0.865223222231306	0.134776777768693	15	1	5	5	1	0	0.730446444462613	1
192	0	[566]	3	1	0.90853660559445	0.0914633944055499	21	1	6	5	1	0	0.8170732111889	1
192	0	[546.3000000044703]	3	0	0.100429620697818	0.899570379302181	23	0	7	5	1	0	0.799140758604363	0
192	1	[810]	3	0	0.0736473459886032	0.926352654011396	22	0	8	5	1	0	0.852705308022793	1
192	1	[480.40000000596046]	3	0	0.0994182558298983	0.900581744170101	23	1	9	5	1	0	0.801163488340203	1
192	0	[925.1000000014901]	3	1	0.918330167834894	0.0816698321651052	23	1	10	5	1	0	0.836660335669789	1
192	0	[457]	3	1	0.858984265037339	0.14101573496266	22	0	11	5	1	0	0.717968530074679	1
192	0	[510]	3	1	0.874200266873328	0.125799733126671	21	1	12	5	1	0	0.748400533746657	1
192	1	[543.3999999985099]	3	0	0.0627526050276338	0.937247394972366	23	0	13	5	1	0	0.874494789944732	1
192	0	[672.1000000014901]	3	1	0.934138688920074	0.065861311079925	16	1	14	5	1	0	0.868277377840149	1
192	0	[714.3999999985099]	3	1	0.904947191263436	0.0950528087365635	20	0	15	5	1	0	0.809894382526873	1
192	1	[520.8000000044703]	3	0	0.100995574577843	0.899004425422156	22	1	16	5	1	0	0.798008850844313	1
192	0	[487.3999999985099]	3	1	0.880713263178493	0.119286736821506	22	1	17	5	1	0	0.761426526356987	1
192	1	[532.3999999985099]	3	0	0.103355518203761	0.896644481796238	21	0	18	5	1	0	0.793288963592477	1
192	0	[425.3999999985099]	3	1	0.94278661216375	0.0572133878362497	22	0	19	5	1	0	0.8855732243275	1
192	1	[460.5]	3	0	0.0798963446911075	0.920103655308892	23	1	20	5	1	0	0.840207310617785	1
192	0	[631.7999999970198]	3	1	0.879934906104255	0.120065093895744	22	1	21	5	1	0	0.759869812208511	1
192	1	[307]	3	0	0.0519692771092542	0.948030722890745	22	1	22	5	1	0	0.896061445781491	1
192	1	[579.0999999940395]	3	0	0.0962254533392891	0.90377454666071	23	1	23	5	1	0	0.807549093321421	1
192	1	[431.20000000298023]	3	0	0.11002545258793	0.889974547412069	22	1	24	5	1	0	0.779949094824139	1
192	0	[438.09999999403954]	3	1	0.863886269921441	0.136113730078558	18	0	25	5	1	0	0.727772539842883	1
192	1	[583.7000000029802]	2	0	0.427109816031577	0.572890183968422	24	0	1	6	0	1	0.145780367936845	0
192	1	[854.7000000029802]	2	0	0.48744207628144	0.512557923718559	22	0	2	6	0	1	0.025115847437119	0
192	1	[608.3999999985099]	2	0	0.445948433089544	0.554051566910455	21	0	3	6	0	1	0.108103133820911	0
192	0	[777.5]	2	1	0.584530013153387	0.415469986846612	22	0	4	6	0	1	0.169060026306775	0
192	1	[660.7000000029802]	2	0	0.451405646575625	0.548594353424374	22	0	5	6	0	1	0.097188706848749	0
192	1	[706]	2	0	0.473551260293972	0.526448739706027	22	0	6	6	0	1	0.052897479412055	0
192	0	[788.6000000014901]	2	1	0.590096042745962	0.409903957254037	22	0	7	6	0	1	0.180192085491925	0
192	0	[961.7999999970198]	2	1	0.539483848213391	0.460516151786608	24	0	8	6	0	1	0.078967696426783	0
192	1	[583.7999999970198]	2	0	0.441013736421176	0.558986263578823	22	0	9	6	0	1	0.117972527157647	0
192	0	[764.7000000029802]	2	0	0.472171112643629	0.52782888735637	19	1	10	6	0	1	0.055657774712741	1
192	0	[961.8000000044703]	2	1	0.524440681047752	0.475559318952247	21	0	11	6	0	1	0.048881362095505	0
192	0	[846.7000000029802]	2	1	0.540867494736055	0.459132505263944	21	0	12	6	0	1	0.081734989472111	0
192	1	[566.6000000014901]	2	0	0.449883868253588	0.550116131746411	50	0	13	6	0	1	0.100232263492823	0
192	0	[604.5]	2	1	0.518224301633471	0.481775698366528	21	0	14	6	0	1	0.036448603266943	0
192	1	[709.6000000014901]	2	1	0.503916708895562	0.496083291104437	21	1	15	6	0	1	0.00783341779112495	1
192	1	[593.6000000014901]	2	1	0.50976122898804	0.490238771011959	18	1	16	6	0	1	0.019522457976081	1
192	1	[543.1000000014901]	2	0	0.49819948569053	0.501800514309469	21	0	17	6	0	1	0.00360102861893902	0
192	0	[722]	2	1	0.554575114333275	0.445424885666724	21	0	18	6	0	1	0.109150228666551	0
192	1	[676.2999999970198]	2	1	0.522594455304695	0.477405544695304	21	1	19	6	0	1	0.045188910609391	1
192	1	[490.09999999403954]	2	1	0.519018131625165	0.480981868374834	20	1	20	6	0	1	0.038036263250331	1
192	0	[784]	2	1	0.518476249566564	0.481523750433435	20	0	21	6	0	1	0.036952499133129	0
192	1	[620.5999999940395]	2	0	0.424044872933361	0.575955127066638	21	0	22	6	0	1	0.151910254133277	0
192	0	[666]	2	1	0.54700853128836	0.452991468711639	14	0	23	6	0	1	0.094017062576721	0
192	0	[693.2999999970198]	2	0	0.460597686067579	0.53940231393242	17	0	24	6	0	1	0.078804627864841	1
192	1	[778]	2	0	0.441660783935671	0.558339216064328	18	0	25	6	0	1	0.116678432128657	0
192	1	[878.6999999955297]	2	1	0.517058380969928	0.482941619030071	86	0	1	7	1	1	0.034116761939857	0
192	0	[772.8000000044703]	2	1	0.57451806640211	0.42548193359789	84	1	2	7	1	1	0.14903613280422	1
192	0	[938.9000000059605]	2	0	0.498883597939011	0.501116402060988	84	0	3	7	1	1	0.00223280412197696	0
192	0	[683.0999999940395]	2	1	0.517990105502699	0.4820098944973	87	1	4	7	1	1	0.035980211005399	1
192	1	[572.2000000029802]	2	0	0.400877592763377	0.599122407236622	83	1	5	7	1	1	0.198244814473245	1
192	0	[500.20000000298023]	2	1	0.592032013087438	0.407967986912561	83	1	6	7	1	1	0.184064026174877	1
192	0	[591.6999999955297]	2	1	0.514931487105142	0.485068512894858	83	1	7	7	1	1	0.0298629742102841	1
192	1	[450]	2	0	0.419758439027625	0.580241560972374	50	1	8	7	1	1	0.160483121944749	1
192	0	[559.5]	2	1	0.559763724185784	0.440236275814215	85	1	9	7	1	1	0.119527448371569	1
192	0	[791.6999999955297]	2	1	0.597747651502425	0.402252348497574	83	1	10	7	1	1	0.195495303004851	1
192	0	[583.2000000029802]	2	1	0.589781314463837	0.410218685536162	82	1	11	7	1	1	0.179562628927675	1
192	1	[441.3999999985099]	2	0	0.407018781365178	0.592981218634821	88	1	12	7	1	1	0.185962437269643	1
192	1	[519.5]	2	0	0.423220322249301	0.576779677750698	84	1	13	7	1	1	0.153559355501397	1
192	1	[472.29999999701977]	2	0	0.441369751255568	0.558630248744431	84	1	14	7	1	1	0.117260497488863	1
192	1	[449.8999999985099]	2	0	0.45506082616871	0.544939173831289	85	1	15	7	1	1	0.089878347662579	1
192	1	[492.5]	2	0	0.42446645728774	0.575533542712259	83	1	16	7	1	1	0.151067085424519	1
192	0	[621]	2	1	0.574493134171806	0.425506865828193	85	1	17	7	1	1	0.148986268343613	1
192	1	[534.8999999985099]	2	0	0.465151287934037	0.534848712065962	87	1	18	7	1	1	0.069697424131925	1
192	1	[543.7999999970198]	2	0	0.418014290482013	0.581985709517986	84	1	19	7	1	1	0.163971419035973	1
192	0	[606.6000000014901]	2	1	0.518176992533774	0.481823007466225	83	1	20	7	1	1	0.0363539850675491	1
192	0	[585.6000000014901]	2	1	0.56078961617508	0.439210383824919	84	1	21	7	1	1	0.121579232350161	1
192	1	[824.7999999970198]	2	0	0.485181408330261	0.514818591669738	82	1	22	7	1	1	0.029637183339477	1
192	1	[521.1000000014901]	2	0	0.403503790938605	0.596496209061394	85	1	23	7	1	1	0.192992418122789	1
192	1	[436]	2	0	0.414989400395597	0.585010599604402	84	0	24	7	1	1	0.170021199208805	1
192	0	[562.7999999970198]	2	1	0.551234810343511	0.448765189656488	85	0	25	7	1	1	0.102469620687023	1
192	1	[543.0999999940395]	3	0	0.137997894009586	0.862002105990413	20	0	1	8	0	1	0.724004211980827	0
192	0	[484]	3	1	0.911829092510154	0.0881709074898457	23	1	2	8	0	1	0.823658185020308	0
192	1	[370]	3	0	0.143818051327748	0.856181948672251	20	1	3	8	0	1	0.712363897344503	0
192	0	[376.3999999985099]	3	1	0.919244824309265	0.0807551756907345	21	0	4	8	0	1	0.83848964861853	0
192	0	[435.6000000014901]	3	1	0.866826217364685	0.133173782635314	21	0	5	8	0	1	0.733652434729371	0
192	0	[525.6000000014901]	3	1	0.948934118778976	0.0510658812210234	18	0	6	8	0	1	0.897868237557953	0
192	1	[421.30000000447035]	3	0	0.135667086257478	0.864332913742521	20	0	7	8	0	1	0.728665827485043	0
192	0	[452.70000000298023]	3	1	0.899447123362556	0.100552876637443	21	1	8	8	0	1	0.798894246725113	0
192	1	[520]	3	0	0.0644599616933727	0.935540038306627	20	0	9	8	0	1	0.871080076613254	0
192	0	[385.5]	3	1	0.94529134819238	0.054708651807619	18	0	10	8	0	1	0.890582696384761	0
192	1	[408]	3	0	0.102946702460228	0.897053297539771	20	0	11	8	0	1	0.794106595079543	0
192	1	[565.8000000044703]	3	0	0.0793665557787943	0.920633444221205	21	1	12	8	0	1	0.841266888442411	0
192	1	[376.3999999985099]	3	0	0.104238465730908	0.895761534269091	19	0	13	8	0	1	0.791523068538183	0
192	1	[396.79999999701977]	3	0	0.12781415017093	0.87218584982907	18	0	14	8	0	1	0.74437169965814	0
192	1	[315.20000000298023]	3	0	0.0742678100152152	0.925732189984784	20	1	15	8	0	1	0.851464379969569	0
192	1	[406.29999999701977]	3	0	0.0565311898325189	0.943468810167481	20	0	16	8	0	1	0.886937620334962	0
192	1	[456.5]	3	0	0.0974773685947545	0.902522631405245	19	1	17	8	0	1	0.80504526281049	0
192	0	[558.2999999970198]	3	1	0.863077488927366	0.136922511072633	20	1	18	8	0	1	0.726154977854733	0
192	1	[365.29999999701977]	3	0	0.06174879404192	0.938251205958079	19	0	19	8	0	1	0.876502411916159	0
192	1	[389.90000000596046]	3	0	0.145138428215467	0.854861571784532	20	0	20	8	0	1	0.709723143569065	0
192	0	[469.79999999701977]	3	1	0.863579115986994	0.136420884013005	20	0	21	8	0	1	0.727158231973989	0
192	0	[503.6000000014901]	3	1	0.940837576695394	0.0591624233046055	22	1	22	8	0	1	0.881675153390789	0
192	0	[531.1999999955297]	3	1	0.903019574934097	0.0969804250659021	20	0	23	8	0	1	0.806039149868195	0
192	0	[394.8999999985099]	3	1	0.874706701191877	0.125293298808122	16	0	24	8	0	1	0.749413402383755	0
192	0	[429]	3	1	0.857819696353143	0.142180303646856	18	0	25	8	0	1	0.715639392706287	0
192	1	[779.9000000059605]	1	0	0.499864528433534	0.500135471566465	81	0	1	9	1	1	0.000270943132930968	1
192	1	[917.8000000044703]	1	0	0.426681871203773	0.573318128796226	81	1	2	9	1	1	0.146636257592453	1
192	1	[436.29999999701977]	1	0	0.405147775577816	0.594852224422183	82	1	3	9	1	1	0.189704448844367	1
192	1	[637.7000000029802]	1	0	0.423250001058957	0.576749998941042	83	1	4	9	1	1	0.153499997882085	1
192	0	[456.80000000447035]	1	1	0.589081428323111	0.410918571676888	87	1	5	9	1	1	0.178162856646223	1
192	0	[587.4000000059605]	1	1	0.591174831561739	0.40882516843826	81	0	6	9	1	1	0.182349663123479	1
192	0	[704.0999999940395]	1	1	0.500468695738366	0.499531304261633	87	1	7	9	1	1	0.000937391476733052	1
192	1	[607.4000000059605]	1	0	0.470845262567706	0.529154737432293	83	0	8	9	1	1	0.058309474864587	1
192	1	[625.2999999970198]	1	0	0.426967906272325	0.573032093727674	84	1	9	9	1	1	0.146064187455349	1
192	1	[528.5,952.2000000029802]	1	0	0.411314081243877	0.588685918756122	85	0	10	9	1	1	0.177371837512245	1
192	1	[471.6000000014901]	1	0	0.40937329893962	0.590626701060379	87	1	11	9	1	1	0.181253402120759	1
192	0	[551.2999999970198]	1	1	0.565463360241527	0.434536639758472	83	1	12	9	1	1	0.130926720483055	1
192	0	[868]	1	0	0.47229886099183	0.527701139008169	86	1	13	9	1	1	0.055402278016339	0
192	0	[698.3000000044703]	1	1	0.533250257721257	0.466749742278742	85	0	14	9	1	1	0.066500515442515	1
192	1	[581.7999999970198]	1	0	0.450670993321063	0.549329006678936	82	1	15	9	1	1	0.0986580133578731	1
192	0	[652.0999999940395]	1	1	0.526672370027737	0.473327629972262	83	1	16	9	1	1	0.053344740055475	1
192	0	[619.7000000029802]	1	1	0.581419361641951	0.418580638358048	86	1	17	9	1	1	0.162838723283903	1
192	1	[744.8000000044703]	1	0	0.479509668037236	0.520490331962763	87	1	18	9	1	1	0.040980663925527	1
192	0	[631.0999999940395]	1	1	0.570898993983765	0.429101006016234	85	0	19	9	1	1	0.141797987967531	1
192	1	[535.8999999985099]	1	0	0.442246175658762	0.557753824341237	86	1	20	9	1	1	0.115507648682475	1
192	0	[554.4000000059605]	1	1	0.515284919670257	0.484715080329742	86	1	21	9	1	1	0.030569839340515	1
192	0	[551.3999999985099]	1	1	0.566948328930459	0.43305167106954	86	0	22	9	1	1	0.133896657860919	1
192	0	[610.5]	1	1	0.564905407019694	0.435094592980305	85	1	23	9	1	1	0.129810814039389	1
192	1	[859.5999999940395]	1	0	0.498707746806432	0.501292253193568	85	1	24	9	1	1	0.00258450638713598	1
192	1	[785.8999999985099]	1	1	0.516968109735886	0.483031890264113	86	0	25	9	1	1	0.0339362194717731	0
192	1	[609.5]	1	0	0.462140155341944	0.537859844658055	83	0	1	10	0	0	0.075719689316111	0
192	1	[624.2999999970198]	1	0	0.490413061953957	0.509586938046042	84	1	2	10	0	0	0.019173876092085	0
192	0	[550.9000000059605]	1	1	0.509780745273907	0.490219254726092	84	1	3	10	0	0	0.019561490547815	0
192	0	[496.8999999985099]	1	1	0.595692885412023	0.404307114587976	84	0	4	10	0	0	0.191385770824047	0
192	0	[511.59999999403954]	1	1	0.554982928987244	0.445017071012756	86	0	5	10	0	0	0.109965857974488	0
192	1	[565.8999999985099]	1	0	0.401193886772402	0.598806113227597	84	0	6	10	0	0	0.197612226455195	0
192	1	[487.30000000447035]	1	0	0.467397309992196	0.532602690007803	87	0	7	10	0	0	0.0652053800156071	0
192	0	[638.8000000044703]	1	1	0.575721245183211	0.424278754816788	85	0	8	10	0	0	0.151442490366423	0
192	0	[865.2000000029802]	1	0	0.493870062992156	0.506129937007843	86	1	9	10	0	0	0.012259874015687	1
192	1	[488.8999999985099]	1	0	0.415328837496772	0.584671162503227	87	1	10	10	0	0	0.169342325006455	0
192	0	[523.2999999970198]	1	1	0.588314046962172	0.411685953037827	84	1	11	10	0	0	0.176628093924345	0
192	0	[525.3000000044703]	1	1	0.575832748740723	0.424167251259276	87	0	12	10	0	0	0.151665497481447	0
192	1	[944.5]	1	0	0.482671570200009	0.51732842979999	89	0	13	10	0	0	0.034656859599981	0
192	1	[715.7000000029802]	1	0	0.460764128437593	0.539235871562406	88	0	14	10	0	0	0.078471743124813	0
192	0	[599.7000000029802]	1	1	0.554996666540588	0.445003333459411	88	1	15	10	0	0	0.109993333081177	0
192	1	[945]	1	0	0.445077626599758	0.554922373400241	84	1	16	10	0	0	0.109844746800483	0
192	0	[589.5]	1	0	0.473820963657588	0.526179036342411	86	1	17	10	0	0	0.052358072684823	1
192	0	[522.7000000029802]	1	1	0.596012320851077	0.403987679148922	88	0	18	10	0	0	0.192024641702155	0
192	0	[607]	1	1	0.536072433991948	0.463927566008051	86	1	19	10	0	0	0.072144867983897	0
192	0	[570.8000000044703]	1	1	0.586220615597826	0.413779384402174	85	0	20	10	0	0	0.172441231195652	0
192	0	[600.5]	1	1	0.553630829307465	0.446369170692534	86	0	21	10	0	0	0.107261658614931	0
192	0	[717.1000000014901]	1	1	0.554359350953022	0.445640649046978	86	0	22	10	0	0	0.108718701906044	0
192	0	[702.1000000014901]	1	1	0.506894178988583	0.493105821011416	87	0	23	10	0	0	0.013788357977167	0
192	1	[545]	1	0	0.402944464843171	0.597055535156829	87	1	24	10	0	0	0.194111070313658	0
192	1	[490]	1	0	0.464268966888039	0.53573103311196	88	0	25	10	0	0	0.071462066223921	0
192	1	[532.6999999955297]	3	0	0.119680505177328	0.880319494822671	88	0	1	11	1	1	0.760638989645343	1
192	1	[416.69999999552965]	3	0	0.0680387000910214	0.931961299908978	86	1	2	11	1	1	0.863922599817957	1
192	0	[616.8999999985099]	3	1	0.949613492344903	0.0503865076550968	89	1	3	11	1	1	0.899226984689806	1
192	1	[378.69999999552965]	3	0	0.0805853202654198	0.91941467973458	86	1	4	11	1	1	0.83882935946916	1
192	1	[370.20000000298023]	3	0	0.0898548345681411	0.910145165431858	89	1	5	11	1	1	0.820290330863717	1
192	1	[353.70000000298023]	3	0	0.12616208692537	0.873837913074629	86	0	6	11	1	1	0.747675826149259	1
192	0	[551.6000000014901]	3	1	0.918510151450087	0.0814898485499127	87	0	7	11	1	1	0.837020302900174	1
192	0	[393.1000000014901]	3	1	0.932964822369217	0.0670351776307823	87	1	8	11	1	1	0.865929644738435	1
192	0	[443]	3	1	0.895357848349201	0.104642151650798	88	1	9	11	1	1	0.790715696698403	1
192	1	[511.80000000447035]	3	0	0.11082455326964	0.88917544673036	87	1	10	11	1	1	0.77835089346072	1
192	1	[482.3999999985099]	3	0	0.139143097941433	0.860856902058566	88	0	11	11	1	1	0.721713804117133	1
192	1	[428.20000000298023]	3	0	0.124093660813936	0.875906339186063	85	1	12	11	1	1	0.751812678372127	1
192	1	[377.6000000014901]	3	0	0.0783814557454954	0.921618544254504	92	0	13	11	1	1	0.843237088509009	1
192	0	[446.19999999552965]	3	1	0.888981778491407	0.111018221508592	89	1	14	11	1	1	0.777963556982815	1
192	1	[375.19999999552965]	3	0	0.111906107752628	0.888093892247371	88	1	15	11	1	1	0.776187784494743	1
192	1	[407.29999999701977]	3	0	0.125173535838272	0.874826464161727	89	1	16	11	1	1	0.749652928323455	1
192	0	[441.1000000014901]	3	1	0.942340286934539	0.057659713065461	91	0	17	11	1	1	0.884680573869078	1
192	1	[392]	3	0	0.123801679209854	0.876198320790145	90	1	18	11	1	1	0.752396641580291	1
192	0	[749.6000000014901]	3	1	0.922902916845309	0.0770970831546904	89	1	19	11	1	1	0.845805833690619	1
192	1	[437.79999999701977]	3	0	0.143173455111019	0.85682654488898	98	1	20	11	1	1	0.713653089777961	1
192	0	[383.19999999552965]	3	1	0.888663532904526	0.111336467095473	90	1	21	11	1	1	0.777327065809053	1
192	0	[407.5]	3	1	0.917606474525835	0.0823935254741642	90	0	22	11	1	1	0.835212949051671	1
192	0	[385.1000000014901]	3	1	0.923504703667357	0.0764952963326429	93	1	23	11	1	1	0.847009407334714	1
192	0	[513.3000000044703]	3	1	0.893986313121474	0.106013686878525	100	0	24	11	1	1	0.787972626242949	1
192	0	[381.79999999701977]	3	1	0.902451375636197	0.0975486243638024	94	1	25	11	1	1	0.804902751272395	1
192	0	[889.5]	2	1	0.510173565509533	0.489826434490466	20	1	1	12	1	0	0.020347131019067	1
192	1	[427.19999999552965]	2	0	0.426467567787131	0.573532432212869	21	1	2	12	1	0	0.147064864425738	1
192	0	[568.2999999970198]	2	1	0.569650506019498	0.430349493980501	18	1	3	12	1	0	0.139301012038997	1
192	1	[552.8999999985099]	2	0	0.41035885713269	0.589641142867309	14	1	4	12	1	0	0.179282285734619	1
192	0	[707.7000000029802]	2	0	0.485753625040122	0.514246374959877	13	0	5	12	1	0	0.028492749919755	0
192	0	[565.6000000014901]	2	1	0.566387252925839	0.43361274707416	13	1	6	12	1	0	0.132774505851679	1
192	0	[759.3999999985099]	2	1	0.516256598937826	0.483743401062173	15	1	7	12	1	0	0.032513197875653	1
192	1	[601.3000000044703]	2	0	0.442748986790293	0.557251013209706	15	1	8	12	1	0	0.114502026419413	1
192	0	[696.1000000014901]	2	1	0.564186798065795	0.435813201934204	16	1	9	12	1	0	0.128373596131591	1
192	1	[894.1000000014901]	2	0	0.475328386291561	0.524671613708438	12	1	10	12	1	0	0.049343227416877	1
192	0	[659.1000000014901]	2	1	0.586870023370524	0.413129976629475	14	1	11	12	1	0	0.173740046741049	1
192	1	[615.7999999970198]	2	0	0.440976625230253	0.559023374769746	11	1	12	12	1	0	0.118046749539493	1
192	0	[588.7999999970198]	2	1	0.598209086709407	0.401790913290592	12	1	13	12	1	0	0.196418173418815	1
192	1	[599.7999999970198]	2	0	0.40627318040993	0.593726819590069	11	1	14	12	1	0	0.187453639180139	1
192	0	[715.1999999955297]	2	1	0.579945983355796	0.420054016644203	11	1	15	12	1	0	0.159891966711593	1
192	1	[732.5]	2	0	0.431135875874869	0.56886412412513	11	1	16	12	1	0	0.137728248250261	1
192	0	[547.5]	2	1	0.508462006911164	0.491537993088835	11	1	17	12	1	0	0.0169240138223291	1
192	0	[654.6000000014901]	2	1	0.567521595525297	0.432478404474702	11	1	18	12	1	0	0.135043191050595	1
192	1	[450.20000000298023]	2	0	0.436018568941072	0.563981431058927	13	1	19	12	1	0	0.127962862117855	1
192	1	[654.0999999940395]	2	0	0.421097458367907	0.578902541632092	13	1	20	12	1	0	0.157805083264185	1
192	0	[792]	2	1	0.520724265241483	0.479275734758516	15	1	21	12	1	0	0.041448530482967	1
192	1	[525.5]	2	0	0.413849653326036	0.586150346673963	14	1	22	12	1	0	0.172300693347927	1
192	0	[734.6000000014901]	2	1	0.541249698394714	0.458750301605285	15	1	23	12	1	0	0.082499396789429	1
192	1	[565.3000000044703]	2	0	0.455788585740875	0.544211414259124	13	1	24	12	1	0	0.088422828518249	1
192	1	[618.9000000059605]	2	0	0.449486479529232	0.550513520470767	11	0	25	12	1	0	0.101027040941535	1
