ID	choice	rt	condition_int	state	contrast_left	contrast_right	reward	trials	blocks	contrast	ecoperf
138	0	376.30000001192	4	1	0.850394562870505	0.149605437129494	1	1	1	0	0
138	1	409.20000000298	4	1	0.836197534026666	0.163802465973333	1	2	1	0	1
138	1	393	4	1	0.806129481831312	0.193870518168687	1	3	1	0	1
138	0	374.5	4	0	0.163531493358977	0.836468506641022	0	4	1	0	1
138	1	427.399999991059	4	1	0.807080007138142	0.192919992861857	1	5	1	0	1
138	0	359.299999997019	4	0	0.198907436185359	0.80109256381464	0	6	1	0	1
138	1	354.599999994039	4	1	0.857050632113912	0.142949367886087	1	7	1	0	1
138	0	478.20000000298	4	0	0.162426078833566	0.837573921166433	0	8	1	0	1
138	1	369.80000001192	4	1	0.806589194698221	0.193410805301778	1	9	1	0	1
138	0	425.399999991059	4	0	0.127703137786674	0.872296862213325	0	10	1	0	1
138	0	441.90000000596	4	0	0.123565082805465	0.876434917194534	0	11	1	0	1
138	0	549.399999991059	4	0	0.170463492375177	0.829536507624822	0	12	1	0	1
138	1	341.5	4	1	0.856676503393976	0.143323496606023	1	13	1	0	1
138	1	376.40000000596	4	1	0.853746316427443	0.146253683572556	1	14	1	0	1
138	1	455.70000000298	4	1	0.870570230463446	0.129429769536553	1	15	1	0	1
138	1	335.60000000894	4	0	0.17692645058121	0.823073549418789	0	16	1	0	0
138	1	385.799999997019	4	1	0.866371102467252	0.133628897532747	1	17	1	0	1
138	0	579.60000000894	4	0	0.145192853913884	0.854807146086115	0	18	1	0	1
138	0	430.099999994039	4	0	0.146359794760279	0.85364020523972	0	19	1	0	1
138	1	642.799999997019	4	1	0.812540561441158	0.187459438558841	1	20	1	0	1
138	0	360.20000000298	4	1	0.820350563429508	0.179649436570491	1	21	1	0	0
138	1	478.799999997019	4	0	0.159356995404141	0.840643004595858	0	22	1	0	0
138	0	459.90000000596	4	0	0.188008946378048	0.811991053621951	0	23	1	0	1
138	0	409.40000000596	4	0	0.164560090704817	0.835439909295182	0	24	1	0	1
138	1	369.10000000894	4	1	0.844311035684804	0.155688964315195	1	25	1	0	1
138	0	411.299999997019	1	1	0.568421457093191	0.431578542906808	0	1	2	1	1
138	0	611.299999997019	1	0	0.47991023195453	0.520089768045469	1	2	2	1	0
138	1	647.90000000596	1	0	0.46159197689452	0.538408023105479	1	3	2	1	1
138	1	569	1	1	0.511911355134147	0.488088644865852	0	4	2	1	0
138	1	453	1	0	0.454721553777104	0.545278446222895	1	5	2	1	1
138	1	696.799999997019	1	1	0.514551872297732	0.485448127702267	0	6	2	1	0
138	1	418.40000000596	1	0	0.493553997681637	0.506446002318362	1	7	2	1	1
138	0	494.70000000298	1	1	0.578316910241682	0.421683089758317	0	8	2	1	1
138	0	414.099999994039	1	1	0.572183360727327	0.427816639272672	0	9	2	1	1
138	0	482.399999991059	1	0	0.482962969135678	0.517037030864321	1	10	2	1	0
138	0	501.10000000894	1	1	0.531652682230077	0.468347317769922	0	11	2	1	1
138	1	564.5	1	0	0.441078538270883	0.558921461729116	1	12	2	1	1
138	0	391.299999997019	1	1	0.552488141126843	0.447511858873156	0	13	2	1	1
138	1	541.299999997019	1	0	0.438236817079329	0.56176318292067	1	14	2	1	1
138	0	485.299999997019	1	1	0.569226896769134	0.430773103230865	0	15	2	1	1
138	0	468.5	1	0	0.434382264980916	0.565617735019083	1	16	2	1	0
138	0	447.30000001192	1	1	0.525068861385125	0.474931138614874	0	17	2	1	1
138	0	407	1	1	0.555833003990083	0.444166996009916	0	18	2	1	1
138	0	441.90000000596	1	1	0.576121597924019	0.42387840207598	0	19	2	1	1
138	1	399.799999997019	1	0	0.4255040198798	0.574495980120199	1	20	2	1	1
138	1	579.099999994039	1	0	0.437527950782769	0.56247204921723	1	21	2	1	1
138	0	472	1	0	0.466350629249424	0.533649370750575	1	22	2	1	0
138	1	443.40000000596	1	1	0.53252774016268	0.467472259837319	0	23	2	1	0
138	1	747.699999988079	1	0	0.468469633138589	0.53153036686141	1	24	2	1	1
138	NaN	618	1	0	0.44191913321528	0.558080866784719	1	25	2	1	1
138	1	833	4	0	0.154676449939898	0.845323550060101	1	1	3	1	1
138	1	353.20000000298	4	0	0.145785666736888	0.854214333263111	1	2	3	1	1
138	1	362.799999997019	4	0	0.162318780240453	0.837681219759546	1	3	3	1	1
138	1	325.799999997019	4	0	0.184225798563235	0.815774201436764	1	4	3	1	1
138	1	316.299999997019	4	0	0.143245620748016	0.856754379251983	1	5	3	1	1
138	1	284.60000000894	4	0	0.167872897343213	0.832127102656786	1	6	3	1	1
138	0	493.899999991059	4	1	0.812602500303521	0.187397499696478	0	7	3	1	1
138	0	368.90000000596	4	1	0.847815286639873	0.152184713360126	0	8	3	1	1
138	0	357.599999994039	4	1	0.862339882484695	0.137660117515304	0	9	3	1	1
138	1	378.299999997019	4	0	0.197653957828977	0.802346042171022	1	10	3	1	1
138	0	374.599999994039	4	1	0.852513805293944	0.147486194706055	0	11	3	1	1
138	1	411.40000000596	4	0	0.13591061959458	0.864089380405419	1	12	3	1	1
138	1	343.799999997019	4	0	0.15096158958757	0.849038410412429	1	13	3	1	1
138	1	339.299999997019	4	1	0.84357015470374	0.156429845296259	0	14	3	1	0
138	0	365.599999994039	4	1	0.843665040871857	0.156334959128142	0	15	3	1	1
138	0	443.299999997019	4	1	0.873081130126194	0.126918869873805	0	16	3	1	1
138	1	668.799999997019	4	0	0.136015465905879	0.86398453409412	1	17	3	1	1
138	1	388.799999997019	4	0	0.173548283045163	0.826451716954836	1	18	3	1	1
138	0	341	4	1	0.851593506242527	0.148406493757472	0	19	3	1	1
138	0	522.899999991059	4	1	0.871293801455795	0.128706198544204	0	20	3	1	1
138	1	377	4	1	0.852022313149943	0.147977686850056	0	21	3	1	0
138	0	376.599999994039	4	1	0.848943737699569	0.15105626230043	0	22	3	1	1
138	1	373.099999994039	4	0	0.131397134014194	0.868602865985805	1	23	3	1	1
138	0	441.299999997019	4	1	0.822987193517834	0.177012806482165	0	24	3	1	1
138	0	326.299999997019	4	1	0.800641159414459	0.19935884058554	0	25	3	1	1
138	0	565.40000000596	3	1	0.848887361075887	0.151112638924112	1	1	4	0	0
138	0	329.399999991059	3	0	0.183756464792748	0.816243535207251	0	2	4	0	1
138	1	388.70000000298	3	1	0.877408205559645	0.122591794440354	1	3	4	0	1
138	1	311.799999997019	3	1	0.863647832278779	0.136352167721221	1	4	4	0	1
138	0	552.70000000298	3	1	0.866592473126958	0.133407526873041	1	5	4	0	0
138	1	423.20000000298	3	1	0.813571836570447	0.186428163429553	1	6	4	0	1
138	1	332	3	1	0.821309573437058	0.178690426562941	1	7	4	0	1
138	1	331.60000000894	3	1	0.851397054610789	0.14860294538921	1	8	4	0	1
138	1	345.10000000894	3	0	0.158905702688393	0.841094297311606	0	9	4	0	0
138	1	520.899999991059	3	1	0.838895937369686	0.161104062630313	1	10	4	0	1
138	0	442.70000000298	3	0	0.161801409937283	0.838198590062716	0	11	4	0	1
138	1	348.60000000894	3	1	0.848920835452111	0.151079164547888	1	12	4	0	1
138	1	337	3	0	0.140151542172014	0.859848457827985	0	13	4	0	0
138	0	356.299999997019	3	1	0.811801309332382	0.188198690667617	1	14	4	0	0
138	0	409.099999994039	3	0	0.153799524664521	0.846200475335478	0	15	4	0	1
138	0	372.299999997019	3	0	0.131833471514827	0.868166528485172	0	16	4	0	1
138	1	302	3	1	0.861078439150911	0.138921560849088	1	17	4	0	1
138	0	348.399999991059	3	0	0.182463284779669	0.81753671522033	0	18	4	0	1
138	0	430.5	3	0	0.145388816210342	0.854611183789657	0	19	4	0	1
138	1	335.099999994039	3	0	0.147940321671851	0.852059678328148	0	20	4	0	0
138	1	317	3	0	0.166849769351384	0.833150230648616	0	21	4	0	0
138	0	375.90000000596	3	0	0.172823041883988	0.827176958116011	0	22	4	0	1
138	1	446.5	3	1	0.851067053062402	0.148932946937597	1	23	4	0	1
138	0	509.5	3	0	0.144442856473188	0.855557143526811	0	24	4	0	1
138	0	387	3	0	0.190170174160544	0.809829825839455	0	25	4	0	1
138	0	579.099999994039	3	1	0.879946103386601	0.120053896613398	0	1	5	1	1
138	0	361.70000000298	3	1	0.854244014985952	0.145755985014047	0	2	5	1	1
138	0	369.5	3	1	0.823810158910643	0.176189841089356	0	3	5	1	1
138	1	358.70000000298	3	0	0.196894198345571	0.803105801654428	1	4	5	1	1
138	1	326.899999991059	3	0	0.187849038956229	0.81215096104377	1	5	5	1	1
138	0	520.799999997019	3	0	0.124271060329716	0.875728939670283	1	6	5	1	0
138	1	479.40000000596	3	1	0.805395410282756	0.194604589717243	0	7	5	1	0
138	0	409.90000000596	3	0	0.165034795290229	0.83496520470977	1	8	5	1	0
138	0	450.399999991059	3	0	0.146832845975057	0.853167154024942	1	9	5	1	0
138	1	337	3	0	0.178822979702725	0.821177020297274	1	10	5	1	1
138	0	365.70000000298	3	1	0.87684945211016	0.123150547889839	0	11	5	1	1
138	0	360.5	3	1	0.818885950660279	0.181114049339721	0	12	5	1	1
138	0	350.099999994039	3	1	0.820285325401576	0.179714674598423	0	13	5	1	1
138	0	332.599999994039	3	1	0.868237253683205	0.131762746316794	0	14	5	1	1
138	1	269.90000000596	3	0	0.179157153665955	0.820842846334044	1	15	5	1	1
138	1	343.399999991059	3	1	0.848396243966489	0.15160375603351	0	16	5	1	0
138	1	322.5	3	0	0.141661733491764	0.858338266508235	1	17	5	1	1
138	0	469.5	3	0	0.199811221395255	0.800188778604744	1	18	5	1	0
138	0	512.899999991059	3	1	0.870291303204566	0.129708696795433	0	19	5	1	1
138	0	379.899999991059	3	1	0.828339245510936	0.171660754489063	0	20	5	1	1
138	1	290	3	0	0.150276592770228	0.849723407229771	1	21	5	1	1
138	1	337.599999994039	3	0	0.18255953738434	0.817440462615659	1	22	5	1	1
138	1	334.10000000894	3	0	0.122959867777934	0.877040132222065	1	23	5	1	1
138	0	347.799999997019	3	1	0.818765230077027	0.181234769922972	0	24	5	1	1
138	0	423	3	1	0.831162179365758	0.168837820634241	0	25	5	1	1
138	1	330.399999991059	2	0	0.427102585515231	0.572897414484769	0	1	6	0	0
138	1	380.30000001192	2	1	0.553727669530582	0.446272330469417	1	2	6	0	1
138	0	421.399999991059	2	0	0.431856027567982	0.568143972432017	0	3	6	0	1
138	1	384.599999994039	2	1	0.532140149204744	0.467859850795255	1	4	6	0	1
138	0	432.90000000596	2	0	0.432966617731018	0.567033382268981	0	5	6	0	1
138	1	522.699999988079	2	0	0.490844113121882	0.509155886878117	0	6	6	0	0
138	0	446.20000000298	2	0	0.427844455944064	0.572155544055935	0	7	6	0	1
138	1	514.70000000298	2	1	0.511334818598746	0.488665181401254	1	8	6	0	1
138	0	460.20000000298	2	0	0.496084802678071	0.503915197321928	0	9	6	0	1
138	1	423.799999997019	2	1	0.521760831573011	0.478239168426988	1	10	6	0	1
138	1	396.5	2	1	0.55490641688606	0.445093583113939	1	11	6	0	1
138	0	585.699999988079	2	0	0.474773409565565	0.525226590434434	0	12	6	0	1
138	1	804.799999997019	2	0	0.499656553196775	0.500343446803224	0	13	6	0	0
138	1	407.799999997019	2	1	0.519861711791943	0.480138288208057	1	14	6	0	1
138	0	444	2	0	0.439148006296959	0.56085199370304	0	15	6	0	1
138	1	366.299999997019	2	1	0.572584294473882	0.427415705526117	1	16	6	0	1
138	1	350.70000000298	2	1	0.531178137912401	0.468821862087598	1	17	6	0	1
138	0	388.5	2	0	0.427360731216249	0.57263926878375	0	18	6	0	1
138	0	419.70000000298	2	0	0.46434371924707	0.535656280752929	0	19	6	0	1
138	1	353.899999991059	2	1	0.568896076906867	0.431103923093132	1	20	6	0	1
138	0	402	2	0	0.440183659234267	0.559816340765732	0	21	6	0	1
138	0	399.099999994039	2	0	0.428550515463142	0.571449484536857	0	22	6	0	1
138	1	343.599999994039	2	1	0.541641548817577	0.458358451182422	1	23	6	0	1
138	1	370.40000000596	2	1	0.556271268503837	0.443728731496162	1	24	6	0	1
138	1	338.80000001192	2	1	0.54157192902029	0.458428070979709	1	25	6	0	1
138	1	58.6000000089407	1	1	0.525408937441122	0.474591062558878	1	1	7	0	1
138	1	487.70000000298	1	0	0.471002519509525	0.528997480490474	0	2	7	0	0
138	1	382.70000000298	1	1	0.569478418088767	0.430521581911233	1	3	7	0	1
138	1	381.70000000298	1	0	0.481187722633657	0.518812277366342	0	4	7	0	0
138	0	451.599999994039	1	0	0.438073846262171	0.561926153737828	0	5	7	0	1
138	1	378.5	1	1	0.533066993497034	0.466933006502965	1	6	7	0	1
138	1	411.5	1	1	0.565732617466475	0.434267382533524	1	7	7	0	1
138	0	365	1	0	0.421490447495156	0.578509552504843	0	8	7	0	1
138	0	419.20000000298	1	1	0.50906615062126	0.490933849378739	1	9	7	0	0
138	1	462.199999988079	1	0	0.459321464451812	0.540678535548188	0	10	7	0	0
138	0	694.099999994039	1	0	0.492862916365213	0.507137083634786	0	11	7	0	1
138	1	674.70000000298	1	1	0.506487908372622	0.493512091627377	1	12	7	0	1
138	0	484.299999997019	1	1	0.571538773515389	0.42846122648461	1	13	7	0	0
138	0	558.099999994039	1	0	0.486143304240916	0.513856695759083	0	14	7	0	1
138	1	481.5	1	0	0.498672998417892	0.501327001582107	0	15	7	0	0
138	0	490.90000000596	1	0	0.45615006788725	0.543849932112749	0	16	7	0	1
138	0	457	1	0	0.422614083297662	0.577385916702337	0	17	7	0	1
138	0	389.70000000298	1	0	0.437484944313874	0.562515055686125	0	18	7	0	1
138	0	392.70000000298	1	0	0.46016524073342	0.539834759266579	0	19	7	0	1
138	1	380.90000000596	1	1	0.514484582885257	0.485515417114742	1	20	7	0	1
138	1	486.5	1	1	0.524977768704269	0.47502223129573	1	21	7	0	1
138	1	413.70000000298	1	1	0.502568840144136	0.497431159855863	1	22	7	0	1
138	1	337.599999994039	1	1	0.520287332804717	0.479712667195282	1	23	7	0	1
138	1	452.20000000298	1	1	0.554075106600276	0.445924893399723	1	24	7	0	1
138	1	364.799999997019	1	1	0.527444264672676	0.472555735327323	1	25	7	0	1
138	1	643.299999997019	2	1	0.556938005835469	0.44306199416453	0	1	8	1	0
138	0	428.799999997019	2	1	0.516137651117405	0.483862348882594	0	2	8	1	1
138	1	626.5	2	0	0.486977828285319	0.51302217171468	1	3	8	1	1
138	0	367.40000000596	2	1	0.534374089540357	0.465625910459642	0	4	8	1	1
138	1	361.60000000894	2	0	0.46547085919106	0.534529140808939	1	5	8	1	1
138	0	419.699999988079	2	1	0.574243498515972	0.425756501484027	0	6	8	1	1
138	1	377	2	0	0.446702281586949	0.55329771841305	1	7	8	1	1
138	1	517.299999997019	2	0	0.473412522209029	0.52658747779097	1	8	8	1	1
138	1	360.799999997019	2	0	0.452199677470248	0.547800322529752	1	9	8	1	1
138	0	478.599999994039	2	1	0.5635116007503	0.436488399249699	0	10	8	1	1
138	0	529.599999994039	2	0	0.499806531195732	0.500193468804267	1	11	8	1	0
138	1	439.599999994039	2	0	0.487741441003875	0.512258558996124	1	12	8	1	1
138	0	494.799999997019	2	1	0.545363442545915	0.454636557454084	0	13	8	1	1
138	0	427.70000000298	2	1	0.524854421853802	0.475145578146197	0	14	8	1	1
138	1	466	2	0	0.475473932592042	0.524526067407957	1	15	8	1	1
138	0	373.199999988079	2	1	0.557247898922872	0.442752101077127	0	16	8	1	1
138	0	390.799999997019	2	1	0.54590510920857	0.454094890791429	0	17	8	1	1
138	0	425.299999997019	2	0	0.488853883501291	0.511146116498708	1	18	8	1	0
138	0	471.799999997019	2	1	0.566249319214726	0.433750680785273	0	19	8	1	1
138	0	778.899999991059	2	0	0.461911874178964	0.538088125821035	1	20	8	1	0
138	0	580	2	1	0.518411812150676	0.481588187849323	0	21	8	1	1
138	1	409.299999997019	2	0	0.425774456804929	0.57422554319507	1	22	8	1	1
138	0	343.40000000596	2	1	0.55062329804264	0.449376701957359	0	23	8	1	1
138	1	323.40000000596	2	0	0.45547723539208	0.544522764607919	1	24	8	1	1
138	0	451.099999994039	2	1	0.508197601223869	0.49180239877613	0	25	8	1	1
138	0	710.599999994039	1	0	0.487197488646303	0.512802511353696	0	1	9	0	1
138	1	810.099999994039	1	0	0.463225860640693	0.536774139359306	0	2	9	0	0
138	0	631	1	1	0.504490607493219	0.49550939250678	1	3	9	0	0
138	0	383.80000001192	1	1	0.530470389334514	0.469529610665485	1	4	9	0	0
138	0	376.20000000298	1	1	0.56476019505009	0.435239804949909	1	5	9	0	0
138	1	425.5	1	0	0.448463582608355	0.551536417391644	0	6	9	0	0
138	0	449.5	1	1	0.547143640627987	0.452856359372012	1	7	9	0	0
138	1	548.599999994039	1	0	0.487969017784499	0.5120309822155	0	8	9	0	0
138	1	500.60000000894	1	0	0.450500175311128	0.549499824688871	0	9	9	0	0
138	0	444.399999991059	1	1	0.512660937927729	0.48733906207227	1	10	9	0	0
138	0	468.5	1	1	0.571842610128111	0.428157389871888	1	11	9	0	0
138	1	394.099999994039	1	1	0.533409287018897	0.466590712981102	1	12	9	0	1
138	1	413.40000000596	1	1	0.552296382499172	0.447703617500827	1	13	9	0	1
138	0	355.5	1	1	0.578451454294096	0.421548545705904	1	14	9	0	0
138	0	485.599999994039	1	1	0.562358308875936	0.437641691124063	1	15	9	0	0
138	0	755.20000000298	1	0	0.447575897155139	0.55242410284486	0	16	9	0	1
138	1	567.599999994039	1	1	0.536632584726453	0.463367415273546	1	17	9	0	1
138	1	517.299999997019	1	0	0.431237526496786	0.568762473503213	0	18	9	0	0
138	0	477.799999997019	1	0	0.455184508798945	0.544815491201054	0	19	9	0	1
138	0	611.20000000298	1	0	0.495588890407332	0.504411109592667	0	20	9	0	1
138	1	302.799999997019	1	1	0.553714224936272	0.446285775063727	1	21	9	0	1
138	1	255.599999994039	1	0	0.490502311554639	0.50949768844536	0	22	9	0	0
138	0	561.399999991059	1	0	0.489389425085716	0.510610574914283	0	23	9	0	1
138	0	388.5	1	0	0.42883514537788	0.57116485462212	0	24	9	0	1
138	1	286.099999994039	1	1	0.571714860469019	0.42828513953098	1	25	9	0	1
138	1	442.20000000298	3	0	0.144666483057844	0.855333516942155	0	1	10	0	0
138	0	412.199999988079	3	0	0.153926531998543	0.846073468001456	0	2	10	0	1
138	1	457.299999997019	3	1	0.809109404062642	0.190890595937357	1	3	10	0	1
138	1	319	3	0	0.1992375807548	0.800762419245199	0	4	10	0	0
138	0	619.899999991059	3	0	0.145712372769904	0.854287627230095	0	5	10	0	1
138	1	267.099999994039	3	1	0.851094046096636	0.148905953903363	1	6	10	0	1
138	1	694.599999994039	3	1	0.879127855783208	0.120872144216791	1	7	10	0	1
138	1	322	3	0	0.184635596885473	0.815364403114526	0	8	10	0	0
138	1	294.599999994039	3	1	0.826833833688678	0.173166166311321	1	9	10	0	1
138	0	425.299999997019	3	1	0.839616288163066	0.160383711836933	1	10	10	0	0
138	0	302.199999988079	3	1	0.842605425242459	0.15739457475754	1	11	10	0	0
138	0	589.90000000596	3	1	0.801023289654331	0.198976710345668	1	12	10	0	0
138	1	464.599999994039	3	1	0.876153142809816	0.123846857190183	1	13	10	0	1
138	1	327.299999997019	3	1	0.836822047424798	0.163177952575201	1	14	10	0	1
138	1	314.10000000894	3	0	0.162830181696049	0.83716981830395	0	15	10	0	0
138	0	575.40000000596	3	1	0.873201619047373	0.126798380952626	1	16	10	0	0
138	0	503.10000000894	3	0	0.178946436627358	0.821053563372641	0	17	10	0	1
138	0	539.10000000894	3	0	0.15003279889073	0.849967201109269	0	18	10	0	1
138	1	426.299999997019	3	1	0.82287611564829	0.177123884351709	1	19	10	0	1
138	0	554.299999997019	3	0	0.154247706112427	0.845752293887572	0	20	10	0	1
138	0	611.799999997019	3	1	0.846570713591533	0.153429286408466	1	21	10	0	0
138	0	807.90000000596	3	0	0.191212308988597	0.808787691011402	0	22	10	0	1
138	0	917.5	3	0	0.196668334144804	0.803331665855195	0	23	10	0	1
138	0	942	3	0	0.137948930859027	0.862051069140972	0	24	10	0	1
138	0	363.299999997019	3	1	0.857961822668133	0.142038177331866	1	25	10	0	0
138	0	445.20000000298	1	1	0.579864288505442	0.420135711494557	0	1	11	1	1
138	1	347	1	0	0.437908388326151	0.562091611673848	1	2	11	1	1
138	1	399.5	1	0	0.431464041562491	0.568535958437508	1	3	11	1	1
138	1	482	1	0	0.445903351866556	0.554096648133443	1	4	11	1	1
138	0	510	1	1	0.523746073160965	0.476253926839034	0	5	11	1	1
138	0	599.099999994039	1	1	0.54858423718731	0.451415762812689	0	6	11	1	1
138	0	921.80000001192	1	0	0.489306946296249	0.51069305370375	1	7	11	1	0
138	0	428.30000001192	1	1	0.53030349874068	0.469696501259319	0	8	11	1	1
138	0	396	1	1	0.540610639928565	0.459389360071434	0	9	11	1	1
138	0	403.70000000298	1	1	0.521347938975791	0.478652061024208	0	10	11	1	1
138	1	408.799999997019	1	1	0.515286006529085	0.484713993470915	0	11	11	1	0
138	1	466.799999997019	1	0	0.456364164386148	0.543635835613851	1	12	11	1	1
138	1	378.20000000298	1	1	0.515355333893817	0.484644666106182	0	13	11	1	0
138	1	291.399999991059	1	1	0.570918213410551	0.429081786589449	0	14	11	1	0
138	1	388.70000000298	1	1	0.525103984010404	0.474896015989595	0	15	11	1	0
138	1	453.20000000298	1	0	0.430981145557964	0.569018854442035	1	16	11	1	1
138	0	672.5	1	0	0.495328888985638	0.504671111014361	1	17	11	1	0
138	0	412.20000000298	1	1	0.520008645734315	0.479991354265684	0	18	11	1	1
138	1	438.299999997019	1	0	0.445881375217598	0.554118624782401	1	19	11	1	1
138	1	542.40000000596	1	0	0.467013907605552	0.532986092394447	1	20	11	1	1
138	1	478.90000000596	1	0	0.463863890506163	0.536136109493836	1	21	11	1	1
138	0	634.90000000596	1	1	0.532151465297056	0.467848534702943	0	22	11	1	1
138	1	405.599999994039	1	0	0.430827443901592	0.569172556098407	1	23	11	1	1
138	1	601.099999994039	1	0	0.475624398802182	0.524375601197817	1	24	11	1	1
138	0	528.40000000596	1	1	0.519276787599895	0.480723212400104	0	25	11	1	1
138	1	488.70000000298	4	0	0.165049098693648	0.834950901306351	0	1	12	0	0
138	1	342.399999991059	4	1	0.807769300756144	0.192230699243855	1	2	12	0	1
138	1	394.899999991059	4	1	0.877392468427283	0.122607531572716	1	3	12	0	1
138	1	454.70000000298	4	0	0.138553293501877	0.861446706498122	0	4	12	0	0
138	1	330.599999994039	4	1	0.80096050083339	0.199039499166609	1	5	12	0	1
138	0	415.899999991059	4	0	0.154640906698444	0.845359093301555	0	6	12	0	1
138	1	326.40000000596	4	1	0.827788669658957	0.172211330341042	1	7	12	0	1
138	1	335.599999994039	4	1	0.842729508822334	0.157270491177665	1	8	12	0	1
138	0	394.599999994039	4	0	0.144520488908637	0.855479511091363	0	9	12	0	1
138	0	432	4	0	0.122975996110854	0.877024003889145	0	10	12	0	1
138	0	456	4	0	0.154649154285792	0.845350845714207	0	11	12	0	1
138	1	458.099999994039	4	1	0.826577550858654	0.173422449141345	1	12	12	0	1
138	1	399.70000000298	4	1	0.85289189885106	0.147108101148939	1	13	12	0	1
138	0	390.40000000596	4	0	0.137941405964771	0.862058594035229	0	14	12	0	1
138	0	487.099999994039	4	0	0.194183239835866	0.805816760164133	0	15	12	0	1
138	1	347.199999988079	4	1	0.838124539179918	0.161875460820081	1	16	12	0	1
138	0	364.5	4	0	0.162279682898475	0.837720317101524	0	17	12	0	1
138	0	419.799999997019	4	0	0.17325184184411	0.826748158155889	0	18	12	0	1
138	1	384.299999997019	4	1	0.827237849012783	0.172762150987216	1	19	12	0	1
138	0	338.5	4	0	0.177403853349326	0.822596146650673	0	20	12	0	1
138	0	439.5	4	1	0.836247888334068	0.163752111665931	1	21	12	0	0
138	1	512.5	4	0	0.196309902090293	0.803690097909706	0	22	12	0	0
138	1	377.899999991059	4	1	0.809528728488801	0.190471271511198	1	23	12	0	1
138	0	375	4	0	0.143662239385968	0.856337760614031	0	24	12	0	1
138	1	339.899999991059	4	1	0.879750162771458	0.120249837228541	1	25	12	0	1
138	0	405.5	2	0	0.440824409396605	0.559175590603394	0	1	13	0	1
138	1	454	2	1	0.558713859508486	0.441286140491514	1	2	13	0	1
138	1	409.30000001192	2	1	0.552469361970382	0.447530638029617	1	3	13	0	1
138	0	454.10000000894	2	0	0.445190470687887	0.554809529312112	0	4	13	0	1
138	1	373.40000000596	2	1	0.546016038813797	0.453983961186202	1	5	13	0	1
138	1	341.799999997019	2	1	0.566160374299313	0.433839625700686	1	6	13	0	1
138	1	506	2	0	0.483121877053574	0.516878122946425	0	7	13	0	0
138	0	686.90000000596	2	0	0.477445637494183	0.522554362505816	0	8	13	0	1
138	1	488.799999997019	2	1	0.523714664516668	0.476285335483331	1	9	13	0	1
138	1	579.70000000298	2	1	0.514777666363475	0.485222333636524	1	10	13	0	1
138	1	849.90000000596	2	1	0.535188627995142	0.464811372004857	1	11	13	0	1
138	1	734.799999997019	2	1	0.519159997798948	0.480840002201051	1	12	13	0	1
138	0	868.5	2	0	0.483170514402476	0.516829485597523	0	13	13	0	1
138	0	420.90000000596	2	0	0.443405206112569	0.55659479388743	0	14	13	0	1
138	1	790.899999991059	2	0	0.49378526139486	0.506214738605139	0	15	13	0	0
138	1	438.5	2	1	0.553348808747015	0.446651191252984	1	16	13	0	1
138	1	443.5	2	1	0.560525050424843	0.439474949575156	1	17	13	0	1
138	0	407.5	2	0	0.470175168945869	0.52982483105413	0	18	13	0	1
138	0	463.899999991059	2	0	0.458610211412331	0.541389788587669	0	19	13	0	1
138	0	455.5	2	0	0.431964645284898	0.568035354715101	0	20	13	0	1
138	1	352.5	2	1	0.525624027707823	0.474375972292177	1	21	13	0	1
138	0	438.5	2	0	0.492693811623706	0.507306188376293	0	22	13	0	1
138	0	384.20000000298	2	0	0.475563288058165	0.524436711941834	0	23	13	0	1
138	1	411.799999997019	2	1	0.554035825346617	0.445964174653382	1	24	13	0	1
138	0	419	2	0	0.443581755992703	0.556418244007296	0	25	13	0	1
138	0	396.5	3	0	0.12890367650492	0.871096323495079	1	1	14	1	0
138	0	339.199999988079	3	1	0.833244827250799	0.1667551727492	0	2	14	1	1
138	1	294.199999988079	3	0	0.152121449144043	0.847878550855956	1	3	14	1	1
138	1	330.10000000894	3	0	0.15144412428909	0.84855587571091	1	4	14	1	1
138	1	344.799999997019	3	1	0.809376126391298	0.190623873608701	0	5	14	1	0
138	1	351.799999997019	3	0	0.126128391363267	0.873871608636732	1	6	14	1	1
138	0	404.599999994039	3	0	0.146675065485867	0.853324934514132	1	7	14	1	0
138	1	289.90000000596	3	0	0.163221729269612	0.836778270730387	1	8	14	1	1
138	0	390.70000000298	3	0	0.139902151850503	0.860097848149496	1	9	14	1	0
138	0	362.20000000298	3	1	0.841892206219295	0.158107793780704	0	10	14	1	1
138	0	323.299999997019	3	0	0.172674704238096	0.827325295761904	1	11	14	1	0
138	1	316.899999991059	3	0	0.151424696820039	0.84857530317996	1	12	14	1	1
138	1	353.40000000596	3	1	0.869914456148622	0.130085543851377	0	13	14	1	0
138	1	297.799999997019	3	0	0.166835719902519	0.833164280097481	1	14	14	1	1
138	0	343.299999997019	3	1	0.85240240983055	0.147597590169449	0	15	14	1	1
138	0	458.40000000596	3	1	0.827313274332672	0.172686725667327	0	16	14	1	1
138	0	354.199999988079	3	0	0.140713345506102	0.859286654493897	1	17	14	1	0
138	0	416.80000001192	3	1	0.827925036417353	0.172074963582646	0	18	14	1	1
138	0	360.90000000596	3	0	0.182687624229266	0.817312375770733	1	19	14	1	0
138	0	560	3	1	0.840272493999647	0.159727506000352	0	20	14	1	1
138	1	282.299999997019	3	1	0.87171483685181	0.128285163148189	0	21	14	1	0
138	0	416.799999997019	3	1	0.870932454180833	0.129067545819166	0	22	14	1	1
138	0	583.799999997019	3	1	0.827774650998909	0.17222534900109	0	23	14	1	1
138	1	669.40000000596	3	1	0.867013830409089	0.13298616959091	0	24	14	1	0
138	0	322.099999994039	3	1	0.814993931107749	0.18500606889225	0	25	14	1	1
138	1	678.299999997019	4	0	0.171412212300624	0.828587787699375	1	1	15	1	1
138	1	357.099999994039	4	0	0.164173464557027	0.835826535442972	1	2	15	1	1
138	1	331.40000000596	4	0	0.120097648261861	0.879902351738138	1	3	15	1	1
138	0	484.70000000298	4	1	0.81719730116854	0.182802698831459	0	4	15	1	1
138	0	373	4	1	0.843107564401337	0.156892435598662	0	5	15	1	1
138	1	328.5	4	0	0.184899906566124	0.815100093433875	1	6	15	1	1
138	1	316	4	0	0.146651373620749	0.85334862637925	1	7	15	1	1
138	0	304.40000000596	4	1	0.83617557440499	0.163824425595009	0	8	15	1	1
138	1	304	4	0	0.182691420841595	0.817308579158404	1	9	15	1	1
138	0	317.399999991059	4	1	0.839538543442383	0.160461456557616	0	10	15	1	1
138	0	356.70000000298	4	1	0.853110934493174	0.146889065506825	0	11	15	1	1
138	0	344.699999988079	4	1	0.803346356070359	0.196653643929641	0	12	15	1	1
138	0	412.699999988079	4	1	0.825283164517974	0.174716835482025	0	13	15	1	1
138	0	357.799999997019	4	1	0.844236591751115	0.155763408248884	0	14	15	1	1
138	1	307.70000000298	4	0	0.124062784329471	0.875937215670528	1	15	15	1	1
138	0	293.799999997019	4	1	0.854027244315652	0.145972755684347	0	16	15	1	1
138	1	378.099999994039	4	0	0.135764280094506	0.864235719905493	1	17	15	1	1
138	1	458.10000000894	4	0	0.150664148207484	0.849335851792515	1	18	15	1	1
138	0	375.20000000298	4	0	0.130212616361102	0.869787383638897	1	19	15	1	0
138	1	606	4	0	0.177166566415802	0.822833433584197	1	20	15	1	1
138	1	403.599999994039	4	0	0.143019627329351	0.856980372670648	1	21	15	1	1
138	0	405	4	1	0.803274316386865	0.196725683613134	0	22	15	1	1
138	1	299.399999991059	4	0	0.1608690715238	0.839130928476199	1	23	15	1	1
138	0	346.20000000298	4	1	0.820487869128454	0.179512130871545	0	24	15	1	1
138	0	393.5	4	1	0.865715656914179	0.13428434308582	0	25	15	1	1
138	1	614.70000000298	2	0	0.441581913954501	0.558418086045498	1	1	16	1	1
138	0	426	2	1	0.530688520126438	0.469311479873562	0	2	16	1	1
138	1	494	2	0	0.445486368786889	0.55451363121311	1	3	16	1	1
138	1	424.20000000298	2	0	0.475091834215166	0.524908165784833	1	4	16	1	1
138	0	533.5	2	1	0.526318804844845	0.473681195155154	0	5	16	1	1
138	1	332	2	0	0.472013180330708	0.527986819669291	1	6	16	1	1
138	0	489.40000000596	2	0	0.47624034172637	0.523759658273629	1	7	16	1	0
138	0	393.20000000298	2	1	0.557918326142189	0.44208167385781	0	8	16	1	1
138	0	472.399999991059	2	0	0.489526384652509	0.51047361534749	1	9	16	1	0
138	1	526.80000001192	2	0	0.495643211198681	0.504356788801318	1	10	16	1	1
138	1	430.899999991059	2	0	0.472045636585857	0.527954363414142	1	11	16	1	1
138	1	405.70000000298	2	0	0.463026703490532	0.536973296509467	1	12	16	1	1
138	0	515.60000000894	2	1	0.576875961763498	0.423124038236502	0	13	16	1	1
138	0	383.299999997019	2	1	0.5797927141553	0.420207285844699	0	14	16	1	1
138	0	505.30000001192	2	0	0.484991929780171	0.515008070219828	1	15	16	1	0
138	0	376.699999988079	2	1	0.561913137089063	0.438086862910936	0	16	16	1	1
138	0	481.099999994039	2	1	0.541015000747452	0.458984999252548	0	17	16	1	1
138	1	644.799999997019	2	0	0.493982311845491	0.506017688154508	1	18	16	1	1
138	0	428.60000000894	2	1	0.556977432736155	0.443022567263844	0	19	16	1	1
138	0	409.299999997019	2	1	0.57497601229724	0.425023987702759	0	20	16	1	1
138	1	392.70000000298	2	0	0.423787110657719	0.57621288934228	1	21	16	1	1
138	0	381.20000000298	2	0	0.488556387147861	0.511443612852138	1	22	16	1	0
138	0	433.399999991059	2	1	0.517041634394541	0.482958365605458	0	23	16	1	1
138	0	474.299999997019	2	1	0.5240897524729	0.475910247527099	0	24	16	1	1
138	0	369.70000000298	2	1	0.532969790179953	0.467030209820046	0	25	16	1	1
