ID	choice	rt	choice_cond	state	contrast_left	contrast_right	mu	correct	trials	blocks	contrast	congruence	con_diff_choice	ecoperf
209	1	[580.5]	3	0	0.0885001770737146	0.911499822926285	55	0	1	1	1	0	0.82299964585257	1
209	1	[431.19999998807907]	3	0	0.10368327050099	0.896316729499009	40	1	2	1	1	0	0.792633458998019	1
209	0	[439.80000001192093]	3	1	0.904149846802004	0.0958501531979955	41	1	3	1	1	0	0.808299693604009	1
209	1	[406.60000002384186]	3	0	0.0868451758114372	0.913154824188562	46	0	4	1	1	0	0.826309648377125	1
209	1	[379.30000001192093]	3	0	0.134923327605484	0.865076672394515	46	1	5	1	1	0	0.730153344789031	1
209	0	[425.2000000476837]	3	1	0.944616347039487	0.0553836529605121	42	1	6	1	1	0	0.889232694078975	1
209	0	[605]	3	1	0.911930295352459	0.0880697046475404	39	1	7	1	1	0	0.823860590704919	1
209	0	[796.8999999761581]	3	1	0.87708866791318	0.122911332086819	39	0	8	1	1	0	0.754177335826361	1
209	0	[521.6999999880791]	3	0	0.0659479015975244	0.934052098402475	46	0	9	1	1	0	0.868104196804951	0
209	0	[426.5]	3	1	0.895187818994199	0.1048121810058	37	1	10	1	1	0	0.790375637988399	1
209	1	[460.60000002384186]	3	0	0.130170878979529	0.86982912102047	41	0	11	1	1	0	0.739658242040941	1
209	1	[482.80000001192093]	3	0	0.133745734810012	0.866254265189987	35	1	12	1	1	0	0.732508530379975	1
209	0	[483.5]	3	1	0.908581609216223	0.0914183907837768	40	0	13	1	1	0	0.817163218432446	1
209	0	[631.8999999761581]	3	1	0.887660838847449	0.11233916115255	38	1	14	1	1	0	0.775321677694899	1
209	1	[411.2000000476837]	3	0	0.067749188508789	0.93225081149121	39	1	15	1	1	0	0.864501622982421	1
209	0	[534.5]	3	1	0.884674931590738	0.115325068409261	41	0	16	1	1	0	0.769349863181477	1
209	1	[440.39999997615814]	3	0	0.118282614437521	0.881717385562478	35	1	17	1	1	0	0.763434771124957	1
209	0	[438.2999999523163]	3	1	0.864059482047627	0.135940517952372	38	1	18	1	1	0	0.728118964095255	1
209	1	[459.80000001192093]	3	0	0.143119137143637	0.856880862856362	38	1	19	1	1	0	0.713761725712725	1
209	1	[378]	3	0	0.0813998772760588	0.918600122723941	27	0	20	1	1	0	0.837200245447882	1
209	0	[435.60000002384186]	3	1	0.854541381710593	0.145458618289406	35	1	21	1	1	0	0.709082763421187	1
209	0	[496.10000002384186]	3	1	0.917324852552003	0.082675147447996	30	1	22	1	1	0	0.834649705104007	1
209	1	[413.7000000476837]	3	0	0.108242835983477	0.891757164016522	31	1	23	1	1	0	0.783514328033045	1
209	1	[552.6000000238419]	3	0	0.110304422822265	0.889695577177734	31	1	24	1	1	0	0.779391154355469	1
209	0	[488]	3	1	0.879140082275651	0.120859917724348	37	0	25	1	1	0	0.758280164551303	1
209	0	[799]	1	0	0.481583755162946	0.518416244837053	42	1	1	2	1	0	0.036832489674107	0
209	1	[500.19999998807907]	1	0	0.404475035345004	0.595524964654995	43	1	2	2	1	0	0.191049929309991	1
209	1	[521]	1	0	0.409150490758981	0.590849509241018	42	0	3	2	1	0	0.181699018482037	1
209	1	[889.7000000476837]	1	0	0.409127450514249	0.59087254948575	40	1	4	2	1	0	0.181745098971501	1
209	0	[508.30000001192093]	1	1	0.530481866664468	0.469518133335531	32	1	5	2	1	0	0.060963733328937	1
209	1	[749.3999999761581]	1	0	0.484806793942615	0.515193206057384	20	1	6	2	1	0	0.0303864121147689	1
209	1	[582.1999999880791]	1	0	0.437375578691056	0.562624421308943	25	0	7	2	1	0	0.125248842617887	1
209	0	[510.80000001192093]	1	1	0.598437708369771	0.401562291630228	14	1	8	2	1	0	0.196875416739543	1
209	0	[766.1999999880791]	1	1	0.502084847119173	0.497915152880826	23	1	9	2	1	0	0.00416969423834701	1
209	0	[605.2000000476837]	1	1	0.541336018616849	0.45866398138315	24	0	10	2	1	0	0.082672037233699	1
209	0	[455.30000001192093]	1	1	0.570902345749541	0.429097654250458	25	1	11	2	1	0	0.141804691499083	1
209	1	[523.5]	1	0	0.429648656757049	0.57035134324295	23	1	12	2	1	0	0.140702686485901	1
209	0	[585.8000000119209]	1	1	0.522279772508271	0.477720227491728	20	0	13	2	1	0	0.044559545016543	1
209	1	[649.5]	1	1	0.501129560919744	0.498870439080255	32	0	14	2	1	0	0.00225912183948901	0
209	1	[492.19999998807907]	1	0	0.463833613345357	0.536166386654642	28	1	15	2	1	0	0.072332773309285	1
209	0	[523.3000000119209]	1	1	0.539007255543788	0.460992744456211	29	0	16	2	1	0	0.078014511087577	1
209	1	[572]	1	1	0.501883813942691	0.498116186057308	40	0	17	2	1	0	0.00376762788538298	0
209	0	[562.5]	1	1	0.527130486187041	0.472869513812958	36	1	18	2	1	0	0.0542609723740829	1
209	1	[504.69999998807907]	1	0	0.461760877060638	0.538239122939361	28	1	19	2	1	0	0.076478245878723	1
209	0	[460.19999998807907]	1	1	0.55904178974641	0.44095821025359	21	1	20	2	1	0	0.11808357949282	1
209	0	[662.6000000238419]	1	1	0.528207507777583	0.471792492222416	28	0	21	2	1	0	0.056415015555167	1
209	1	[541.4000000357628]	1	0	0.492711975531055	0.507288024468944	26	1	22	2	1	0	0.0145760489378891	1
209	1	[526.5]	1	0	0.480852298978905	0.519147701021094	27	0	23	2	1	0	0.038295402042189	1
209	0	[870.3999999761581]	1	1	0.514515745943571	0.485484254056428	23	1	24	2	1	0	0.029031491887143	1
209	1	[446.60000002384186]	1	0	0.441464370580107	0.558535629419893	24	1	25	2	1	0	0.117071258839786	1
209	1	[461.19999998807907]	2	1	0.586530530399983	0.413469469600016	50	0	1	3	1	0	0.173061060799967	0
209	1	[496]	2	1	0.561836977565187	0.438163022434812	37	0	2	3	1	0	0.123673955130375	0
209	1	[566.5]	2	0	0.428615031342023	0.571384968657976	44	1	3	3	1	0	0.142769937315953	1
209	1	[576.6999999880791]	2	1	0.5144587213985	0.485541278601499	50	0	4	3	1	0	0.028917442797001	0
209	0	[656.6000000238419]	2	1	0.564291581922697	0.435708418077302	42	1	5	3	1	0	0.128583163845395	1
209	0	[505.39999997615814]	2	1	0.583603183532958	0.416396816467041	39	1	6	3	1	0	0.167206367065917	1
209	1	[529]	2	0	0.415599242853779	0.58440075714622	30	1	7	3	1	0	0.168801514292441	1
209	0	[508.30000001192093]	2	1	0.559444956936306	0.440555043063693	38	1	8	3	1	0	0.118889913872613	1
209	1	[648.1999999880791]	2	0	0.429119812943358	0.570880187056641	29	1	9	3	1	0	0.141760374113283	1
209	1	[418.80000001192093]	2	0	0.461308816742732	0.538691183257267	13	1	10	3	1	0	0.077382366514535	1
209	0	[489.5]	2	1	0.561584893419149	0.43841510658085	15	1	11	3	1	0	0.123169786838299	1
209	1	[513.1000000238419]	2	1	0.510303748922107	0.489696251077892	19	0	12	3	1	0	0.020607497844215	0
209	1	[566.8999999761581]	2	0	0.475269881238717	0.524730118761282	9	1	13	3	1	0	0.049460237522565	1
209	0	[500.89999997615814]	2	1	0.542085643924137	0.457914356075862	14	1	14	3	1	0	0.084171287848275	1
209	1	[593.3000000119209]	2	0	0.475437693767057	0.524562306232942	4	1	15	3	1	0	0.049124612465885	1
209	1	[470]	2	0	0.47001317858674	0.529986821413259	5	1	16	3	1	0	0.059973642826519	1
209	0	[838.5999999642372]	2	0	0.496050185327161	0.503949814672838	8	0	17	3	1	0	0.00789962934567695	0
209	1	[651.1999999880791]	2	0	0.491150399274344	0.508849600725655	6	1	18	3	1	0	0.017699201451311	1
209	1	[409.5]	2	0	0.416132309565607	0.583867690434392	2	1	19	3	1	0	0.167735380868785	1
209	0	[476.89999997615814]	2	1	0.597174515985535	0.402825484014464	1	1	20	3	1	0	0.194349031971071	1
209	0	[553.3000000119209]	2	1	0.550072077738768	0.449927922261231	0	1	21	3	1	0	0.100144155477537	1
209	0	[437.19999998807907]	2	1	0.560310624658883	0.439689375341116	1	1	22	3	1	0	0.120621249317767	1
209	1	[499]	2	0	0.467416962555667	0.532583037444332	0	1	23	3	1	0	0.065166074888665	1
209	1	[732.8999999761581]	2	0	0.473839527925185	0.526160472074814	0	1	24	3	1	0	0.052320944149629	1
209	0	[585.3000000119209]	2	1	0.510151247410482	0.489848752589517	0	0	25	3	1	0	0.020302494820965	1
209	1	[650.3000000119209]	3	0	0.0598511550092779	0.940148844990722	36	0	1	4	0	0	0.880297689981444	0
209	0	[485.69999998807907]	3	0	0.102492608361552	0.897507391638447	39	1	2	4	0	0	0.795014783276895	1
209	1	[569.1999999880791]	3	1	0.897095345323336	0.102904654676663	50	0	3	4	0	0	0.794190690646673	1
209	0	[432.9000000357628]	3	0	0.135973920063094	0.864026079936905	39	1	4	4	0	0	0.728052159873811	1
209	1	[427.5999999642372]	3	1	0.948311309477622	0.0516886905223776	28	1	5	4	0	0	0.896622618955244	1
209	0	[405.5]	3	0	0.108146294363587	0.891853705636412	38	0	6	4	0	0	0.783707411272825	1
209	1	[415.69999998807907]	3	1	0.854264955483937	0.145735044516062	40	0	7	4	0	0	0.708529910967875	1
209	1	[412.69999998807907]	3	1	0.850524492533828	0.149475507466171	35	1	8	4	0	0	0.701048985067657	1
209	0	[416.19999998807907]	3	0	0.0816720527902721	0.918327947209727	36	1	9	4	0	0	0.836655894419455	1
209	0	[409.9000000357628]	3	0	0.0766851672938057	0.923314832706194	35	0	10	4	0	0	0.846629665412388	1
209	1	[409.89999997615814]	3	1	0.852958942337109	0.14704105766289	28	1	11	4	0	0	0.705917884674219	1
209	0	[381.19999998807907]	3	0	0.0510646969768767	0.948935303023123	29	1	12	4	0	0	0.897870606046246	1
209	1	[435.30000001192093]	3	1	0.933729038548021	0.0662709614519787	34	0	13	4	0	0	0.867458077096042	1
209	1	[404.39999997615814]	3	1	0.913771265355196	0.0862287346448031	26	1	14	4	0	0	0.827542530710393	1
209	0	[391.80000001192093]	3	0	0.058455328677696	0.941544671322303	22	0	15	4	0	0	0.883089342644607	1
209	1	[473.5]	3	1	0.943004731505725	0.0569952684942749	22	1	16	4	0	0	0.88600946301145	1
209	1	[367.10000002384186]	3	1	0.882334776662954	0.117665223337045	21	1	17	4	0	0	0.764669553325909	1
209	0	[419]	3	0	0.121770787770689	0.87822921222931	23	1	18	4	0	0	0.756458424458621	1
209	0	[428.80000001192093]	3	0	0.0514311897955594	0.94856881020444	26	1	19	4	0	0	0.897137620408881	1
209	1	[363]	3	1	0.935618763381537	0.0643812366184626	18	1	20	4	0	0	0.871237526763074	1
209	0	[390.89999997615814]	3	0	0.139971378391263	0.860028621608736	13	1	21	4	0	0	0.720057243217473	1
209	1	[434]	3	1	0.938214097762712	0.0617859022372871	10	0	22	4	0	0	0.876428195525425	1
209	0	[420.0999999642372]	3	0	0.0581013926881596	0.94189860731184	23	0	23	4	0	0	0.88379721462368	1
209	0	[344.5999999642372]	3	0	0.0805578676672129	0.919442132332787	17	1	24	4	0	0	0.838884264665574	1
209	1	[400.5999999642372]	3	1	0.85911774997666	0.140882250023339	20	1	25	4	0	0	0.718235499953321	1
209	1	[688.3000000119209]	1	1	0.501871707206589	0.49812829279341	50	0	1	5	0	1	0.00374341441317905	1
209	1	[754.5]	1	0	0.482419605605093	0.517580394394906	58	0	2	5	0	1	0.035160788789813	0
209	0	[654.8000000119209]	1	0	0.463911211783764	0.536088788216235	66	1	3	5	0	1	0.072177576432471	1
209	1	[665.7000000476837]	1	0	0.439345325057226	0.560654674942773	65	0	4	5	0	1	0.121309349885547	0
209	1	[601.6000000238419]	1	1	0.525016194916587	0.474983805083412	57	0	5	5	0	1	0.050032389833175	1
209	0	[534.6999999880791]	1	0	0.442754891968807	0.557245108031192	50	0	6	5	0	1	0.114490216062385	1
209	0	[775.3000000119209]	1	0	0.482307946672522	0.517692053327477	58	1	7	5	0	1	0.035384106654955	1
209	0	[520.5999999642372]	1	0	0.435661493453846	0.564338506546153	50	0	8	5	0	1	0.128677013092307	1
209	0	[437.69999998807907]	1	0	0.404530817382213	0.595469182617786	70	1	9	5	0	1	0.190938365235573	1
209	0	[446.39999997615814]	1	0	0.452767119918838	0.547232880081161	60	0	10	5	0	1	0.094465760162323	1
209	1	[729.3999999761581]	1	1	0.531130907090404	0.468869092909596	62	1	11	5	0	1	0.062261814180808	1
209	0	[870]	1	0	0.490768469915727	0.509231530084272	59	1	12	5	0	1	0.018463060168545	1
209	1	[723.8000000119209]	1	1	0.524293620598967	0.475706379401032	68	1	13	5	0	1	0.048587241197935	1
209	1	[748]	1	1	0.515241050041211	0.484758949958788	61	0	14	5	0	1	0.030482100082423	1
209	1	[476.39999997615814]	1	1	0.581182179921381	0.418817820078618	64	1	15	5	0	1	0.162364359842763	1
209	1	[431.89999997615814]	1	1	0.599082172915558	0.400917827084441	75	1	16	5	0	1	0.198164345831117	1
209	0	[471.5]	1	1	0.500653169436925	0.499346830563074	54	0	17	5	0	1	0.00130633887385095	0
209	0	[669.8000000119209]	1	0	0.478504477791417	0.521495522208582	67	1	18	5	0	1	0.0429910444171649	1
209	0	[537.2000000476837]	1	0	0.401776895571739	0.59822310442826	68	1	19	5	0	1	0.196446208856521	1
209	1	[435.30000001192093]	1	1	0.578617062159907	0.421382937840092	70	0	20	5	0	1	0.157234124319815	1
209	0	[433.2999999523163]	1	0	0.422411775652762	0.577588224347237	61	0	21	5	0	1	0.155176448694475	1
209	0	[536]	1	0	0.465335027471198	0.534664972528801	70	1	22	5	0	1	0.069329945057603	1
209	1	[497.30000001192093]	1	1	0.541099226063073	0.458900773936926	72	1	23	5	0	1	0.082198452126147	1
209	1	[424.80000001192093]	1	1	0.54654778663754	0.453452213362459	78	0	24	5	0	1	0.093095573275081	1
209	1	[581.4000000357628]	1	1	0.518286241434902	0.481713758565097	70	0	25	5	0	1	0.036572482869805	1
209	0	[484.80000001192093]	2	0	0.474124808909704	0.525875191090295	38	0	1	6	1	1	0.051750382180591	0
209	0	[488.60000002384186]	2	1	0.565043388831244	0.434956611168755	69	1	2	6	1	1	0.130086777662489	1
209	1	[412.19999998807907]	2	0	0.43418175339501	0.565818246604989	69	1	3	6	1	1	0.131636493209979	1
209	0	[473.9000000357628]	2	1	0.572760847736113	0.427239152263886	71	1	4	6	1	1	0.145521695472227	1
209	0	[363.7000000476837]	2	1	0.530962891994289	0.46903710800571	73	1	5	6	1	1	0.061925783988579	1
209	1	[434.30000001192093]	2	0	0.423861357945661	0.576138642054338	78	1	6	6	1	1	0.152277284108677	1
209	1	[426.19999998807907]	2	0	0.44616544267498	0.553834557325019	73	1	7	6	1	1	0.107669114650039	1
209	1	[412.10000002384186]	2	0	0.403493812856807	0.596506187143192	78	1	8	6	1	1	0.193012374286385	1
209	1	[783.1000000238419]	2	0	0.468738222522977	0.531261777477022	74	1	9	6	1	1	0.062523554954045	1
209	1	[398.80000001192093]	2	0	0.446066892945066	0.553933107054933	85	1	10	6	1	1	0.107866214109867	1
209	0	[424.39999997615814]	2	1	0.53800354876371	0.461996451236289	77	1	11	6	1	1	0.076007097527421	1
209	1	[401.0999999642372]	2	0	0.400355101577012	0.599644898422987	85	1	12	6	1	1	0.199289796845975	1
209	1	[418.9000000357628]	2	0	0.449103797789964	0.550896202210035	89	1	13	6	1	1	0.101792404420071	1
209	0	[433.39999997615814]	2	1	0.596611255875731	0.403388744124268	83	1	14	6	1	1	0.193222511751463	1
209	0	[471.4000000357628]	2	1	0.554546904622853	0.445453095377146	86	1	15	6	1	1	0.109093809245707	1
209	0	[635.8000000119209]	2	1	0.545298302873282	0.454701697126717	86	1	16	6	1	1	0.090596605746565	1
209	1	[406.80000001192093]	2	0	0.404515349299299	0.5954846507007	88	1	17	6	1	1	0.190969301401401	1
209	0	[403.69999998807907]	2	1	0.598136896046955	0.401863103953044	91	1	18	6	1	1	0.196273792093911	1
209	1	[445.89999997615814]	2	0	0.438003868702729	0.56199613129727	88	1	19	6	1	1	0.123992262594541	1
209	1	[437.10000002384186]	2	0	0.445372032296932	0.554627967703067	91	1	20	6	1	1	0.109255935406135	1
209	0	[534]	2	1	0.514684011832729	0.48531598816727	87	1	21	6	1	1	0.029368023665459	1
209	1	[437.39999997615814]	2	0	0.409232917710796	0.590767082289203	92	1	22	6	1	1	0.181534164578407	1
209	0	[531.8000000119209]	2	1	0.533053951276013	0.466946048723986	100	1	23	6	1	1	0.066107902552027	1
209	0	[700.0999999642372]	2	1	0.525190377386795	0.474809622613205	100	1	24	6	1	1	0.05038075477359	1
209	0	[641.9000000357628]	2	1	0.518159749853634	0.481840250146366	100	1	25	6	1	1	0.036319499707268	1
209	0	[667.1000000238419]	2	1	0.513477076207879	0.486522923792121	50	0	1	7	0	1	0.026954152415758	0
209	1	[488]	2	0	0.423847836953542	0.576152163046457	56	0	2	7	0	1	0.152304326092915	0
209	1	[763.0999999642372]	2	1	0.510331523697536	0.489668476302463	59	1	3	7	0	1	0.020663047395073	1
209	1	[654.4000000357628]	2	1	0.551782007699146	0.448217992300853	59	1	4	7	0	1	0.103564015398293	1
209	0	[503.80000001192093]	2	0	0.485946491499031	0.514053508500968	73	1	5	7	0	1	0.028107017001937	1
209	0	[540]	2	0	0.445554067756941	0.554445932243058	75	1	6	7	0	1	0.108891864486117	1
209	1	[425.89999997615814]	2	1	0.595877675614886	0.404122324385113	85	1	7	7	0	1	0.191755351229773	1
209	1	[415.10000002384186]	2	1	0.513587124791957	0.486412875208042	87	1	8	7	0	1	0.027174249583915	1
209	1	[474.4000000357628]	2	1	0.522388815084333	0.477611184915666	82	1	9	7	0	1	0.044777630168667	1
209	1	[402.60000002384186]	2	1	0.544573228504169	0.45542677149583	91	1	10	7	0	1	0.089146457008339	1
209	1	[953.1999999880791]	2	0	0.497397240349776	0.502602759650223	81	0	11	7	0	1	0.00520551930044705	0
209	0	[600.6999999880791]	2	0	0.432488022390839	0.56751197760916	87	1	12	7	0	1	0.135023955218321	1
209	1	[593.5]	2	1	0.523087472534069	0.476912527465931	94	1	13	7	0	1	0.046174945068138	1
209	0	[437.80000001192093]	2	0	0.474374089684757	0.525625910315242	83	1	14	7	0	1	0.0512518206304849	1
209	0	[416.0999999642372]	2	0	0.439249466407196	0.560750533592804	86	1	15	7	0	1	0.121501067185608	1
209	0	[466.60000002384186]	2	0	0.43968048987629	0.560319510123709	95	1	16	7	0	1	0.120639020247419	1
209	0	[412.30000001192093]	2	0	0.46455196909069	0.535448030909309	100	1	17	7	0	1	0.070896061818619	1
209	0	[436.19999998807907]	2	0	0.472440749111298	0.527559250888701	100	1	18	7	0	1	0.055118501777403	1
209	0	[405.2000000476837]	2	0	0.494857155480639	0.50514284451936	100	1	19	7	0	1	0.010285689038721	1
209	0	[561.6000000238419]	2	1	0.517339782778566	0.482660217221433	95	0	20	7	0	1	0.034679565557133	0
209	1	[597]	2	1	0.533055872198253	0.466944127801746	88	1	21	7	0	1	0.066111744396507	1
209	1	[438.80000001192093]	2	1	0.591627103948157	0.408372896051842	100	1	22	7	0	1	0.183254207896315	1
209	0	[759.3000000119209]	2	0	0.47168532654399	0.528314673456009	100	1	23	7	0	1	0.056629346912019	1
209	0	[442.9000000357628]	2	0	0.40261944959194	0.597380550408059	100	1	24	7	0	1	0.194761100816119	1
209	1	[444.19999998807907]	2	1	0.557572545219951	0.442427454780049	100	1	25	7	0	1	0.115145090439902	1
209	0	[594.3000000119209]	3	1	0.903992749340287	0.0960072506597126	5	1	1	8	0	1	0.807985498680574	0
209	1	[792.5]	3	0	0.0535691886042885	0.946430811395711	50	0	2	8	0	1	0.892861622791422	0
209	0	[549.1000000238419]	3	1	0.904785907983675	0.0952140920163246	63	0	3	8	0	1	0.80957181596735	0
209	0	[584.8999999761581]	3	0	0.0746684399559992	0.925331560044	84	1	4	8	0	1	0.850663120088001	1
209	0	[411.80000001192093]	3	0	0.0980525467728776	0.901947453227122	83	1	5	8	0	1	0.803894906454244	1
209	1	[476.0999999642372]	3	1	0.866356819028938	0.133643180971061	73	0	6	8	0	1	0.732713638057877	1
209	1	[363.0999999642372]	3	1	0.923179458526084	0.0768205414739157	76	1	7	8	0	1	0.846358917052168	1
209	1	[442.2999999523163]	3	1	0.867415484698057	0.132584515301942	89	1	8	8	0	1	0.734830969396115	1
209	0	[426.5]	3	0	0.0931667563159882	0.906833243684011	77	0	9	8	0	1	0.813666487368023	1
209	0	[394.5]	3	0	0.105196855186889	0.89480314481311	88	1	10	8	0	1	0.789606289626221	1
209	0	[415.30000001192093]	3	0	0.124481443938626	0.875518556061373	74	0	11	8	0	1	0.751037112122747	1
209	0	[358.80000001192093]	3	0	0.0656926406455872	0.934307359354412	81	1	12	8	0	1	0.868614718708825	1
209	1	[427.80000001192093]	3	1	0.869016190161031	0.130983809838968	79	0	13	8	0	1	0.738032380322063	1
209	1	[467.69999998807907]	3	1	0.879621926850664	0.120378073149335	86	1	14	8	0	1	0.759243853701329	1
209	1	[409.89999997615814]	3	1	0.853940301454912	0.146059698545087	83	1	15	8	0	1	0.707880602909825	1
209	0	[407.19999998807907]	3	0	0.0931779883471499	0.90682201165285	81	0	16	8	0	1	0.8136440233057	1
209	0	[408.19999998807907]	3	0	0.0702012221867905	0.929798777813209	87	1	17	8	0	1	0.859597555626418	1
209	0	[368.39999997615814]	3	0	0.0989599242996491	0.90104007570035	81	1	18	8	0	1	0.802080151400701	1
209	1	[401.80000001192093]	3	1	0.909092460277224	0.0909075397227751	83	1	19	8	0	1	0.818184920554449	1
209	1	[712.8000000119209]	3	1	0.857453643950442	0.142546356049557	84	1	20	8	0	1	0.714907287900885	1
209	1	[581]	3	1	0.921114101371324	0.0788858986286754	85	0	21	8	0	1	0.842228202742649	1
209	0	[441.69999998807907]	3	0	0.0692763516797911	0.930723648320208	84	1	22	8	0	1	0.861447296640417	1
209	0	[366]	3	0	0.109406591917163	0.890593408082836	81	0	23	8	0	1	0.781186816165673	1
209	1	[388.5999999642372]	3	1	0.902149703204628	0.0978502967953717	82	1	24	8	0	1	0.804299406409256	1
209	0	[401.30000001192093]	3	0	0.0603145722277392	0.93968542777226	84	1	25	8	0	1	0.879370855544521	1
209	1	[577.2000000476837]	2	0	0.492473549928454	0.507526450071545	50	0	1	9	0	0	0.015052900143091	0
209	1	[546.3000000119209]	2	0	0.483142259715089	0.51685774028491	50	0	2	9	0	0	0.033715480569821	0
209	1	[506.4000000357628]	2	1	0.531952254925145	0.468047745074854	40	1	3	9	0	0	0.0639045098502909	1
209	1	[427.30000001192093]	2	1	0.574755778643081	0.425244221356918	50	1	4	9	0	0	0.149511557286163	1
209	1	[402.5999999642372]	2	1	0.598954642738924	0.401045357261075	34	1	5	9	0	0	0.197909285477849	1
209	0	[475.4000000357628]	2	0	0.487003691341581	0.512996308658418	33	1	6	9	0	0	0.0259926173168371	1
209	1	[466.4000000357628]	2	1	0.590713832332847	0.409286167667152	20	1	7	9	0	0	0.181427664665695	1
209	0	[524.8999999761581]	2	0	0.472153610652826	0.527846389347173	25	1	8	9	0	0	0.055692778694347	1
209	0	[416.7999999523163]	2	0	0.489720281452831	0.510279718547169	22	1	9	9	0	0	0.0205594370943381	1
209	1	[478.4000000357628]	2	1	0.571934734529083	0.428065265470916	23	1	10	9	0	0	0.143869469058167	1
209	0	[450.2999999523163]	2	0	0.413940411720229	0.58605958827977	22	1	11	9	0	0	0.172119176559541	1
209	1	[473.19999998807907]	2	1	0.564311590752125	0.435688409247874	16	1	12	9	0	0	0.128623181504251	1
209	1	[414.30000001192093]	2	1	0.525419840501789	0.47458015949821	10	1	13	9	0	0	0.0508396810035791	1
209	0	[456.39999997615814]	2	0	0.444414217211877	0.555585782788122	13	1	14	9	0	0	0.111171565576245	1
209	0	[600.6999999880791]	2	0	0.475797867154064	0.524202132845935	8	1	15	9	0	0	0.048404265691871	1
209	1	[499.69999998807907]	2	1	0.571731686783439	0.42826831321656	7	1	16	9	0	0	0.143463373566879	1
209	1	[828.3000000119209]	2	1	0.519071546452044	0.480928453547955	0	1	17	9	0	0	0.038143092904089	1
209	0	[480]	2	0	0.424704572200163	0.575295427799836	0	1	18	9	0	0	0.150590855599673	1
209	1	[437.0999999642372]	2	1	0.56725909280398	0.432740907196019	0	1	19	9	0	0	0.134518185607961	1
209	1	[426.80000001192093]	2	1	0.588369386697197	0.411630613302802	0	1	20	9	0	0	0.176738773394395	1
209	0	[442.89999997615814]	2	0	0.491213830168803	0.508786169831197	0	1	21	9	0	0	0.017572339662394	1
209	1	[582.8999999761581]	2	1	0.53006193969873	0.469938060301269	0	1	22	9	0	0	0.0601238793974609	1
209	1	[445]	2	1	0.579554801381502	0.420445198618498	0	1	23	9	0	0	0.159109602763004	1
209	0	[678.4000000357628]	2	0	0.468206979788385	0.531793020211614	0	1	24	9	0	0	0.063586040423229	1
209	0	[626.6999999880791]	2	0	0.453589283489668	0.546410716510331	0	1	25	9	0	0	0.092821433020663	1
209	0	[502.5]	3	1	0.937870884814926	0.0621291151850734	64	1	1	10	1	1	0.875741769629853	1
209	1	[406.30000001192093]	3	0	0.0661492331135467	0.933850766886453	50	0	2	10	1	1	0.867701533772906	1
209	0	[517]	3	1	0.852405867704566	0.147594132295433	60	1	3	10	1	1	0.704811735409133	1
209	0	[417.5]	3	1	0.915293306501134	0.0847066934988656	79	1	4	10	1	1	0.830586613002268	1
209	1	[416.39999997615814]	3	0	0.0760743962510616	0.923925603748938	84	1	5	10	1	1	0.847851207497876	1
209	1	[389.9000000357628]	3	0	0.0534247151173274	0.946575284882672	81	0	6	10	1	1	0.893150569765345	1
209	0	[370.0999999642372]	3	1	0.927096015929775	0.0729039840702242	81	0	7	10	1	1	0.854192031859551	1
209	1	[379.39999997615814]	3	0	0.0846034953858343	0.915396504614165	88	1	8	10	1	1	0.830793009228331	1
209	0	[439.60000002384186]	3	1	0.881515429047731	0.118484570952268	81	1	9	10	1	1	0.763030858095463	1
209	0	[372.7999999523163]	3	1	0.882012800583402	0.117987199416597	88	0	10	10	1	1	0.764025601166805	1
209	0	[376.19999998807907]	3	1	0.917681916621608	0.0823180833783917	85	1	11	10	1	1	0.835363833243216	1
209	1	[378.30000001192093]	3	0	0.0888519957548116	0.911148004245188	94	1	12	10	1	1	0.822296008490376	1
209	0	[403.4000000357628]	3	1	0.869705533806767	0.130294466193232	90	0	13	10	1	1	0.739411067613535	1
209	0	[357.19999998807907]	3	1	0.864772074894621	0.135227925105378	86	1	14	10	1	1	0.729544149789243	1
209	1	[361.60000002384186]	3	0	0.0729967376908679	0.927003262309132	86	0	15	10	1	1	0.854006524618264	1
209	1	[391]	3	0	0.100079031253316	0.899920968746683	88	1	16	10	1	1	0.799841937493367	1
209	0	[343.2999999523163]	3	1	0.850578304919745	0.149421695080254	86	1	17	10	1	1	0.701156609839491	1
209	0	[375.19999998807907]	3	1	0.85865590085192	0.141344099148079	86	1	18	10	1	1	0.717311801703841	1
209	0	[357.19999998807907]	3	1	0.9203131155726	0.0796868844273996	84	0	19	10	1	1	0.8406262311452	1
209	0	[425.69999998807907]	3	1	0.938560405402404	0.0614395945975958	83	1	20	10	1	1	0.877120810804808	1
209	1	[385.9000000357628]	3	0	0.0954197610668393	0.90458023893316	89	1	21	10	1	1	0.809160477866321	1
209	1	[403]	3	0	0.1018785388657	0.898121461134299	95	1	22	10	1	1	0.796242922268599	1
209	1	[343]	3	0	0.133499564476991	0.866500435523008	87	1	23	10	1	1	0.733000871046017	1
209	1	[378.5]	3	0	0.0883157396274172	0.911684260372582	95	0	24	10	1	1	0.823368520745165	1
209	1	[363.69999998807907]	3	0	0.137351815788569	0.86264818421143	94	1	25	10	1	1	0.725296368422861	1
209	0	[541.9000000357628]	1	1	0.586806348830545	0.413193651169454	58	1	1	11	0	0	0.173612697661091	0
209	0	[695]	1	1	0.541817572921366	0.458182427078634	50	0	2	11	0	0	0.083635145842732	0
209	1	[646.8000000119209]	1	0	0.440688668057028	0.559311331942971	37	0	3	11	0	0	0.118622663885943	0
209	1	[580.8000000119209]	1	1	0.52072941317257	0.479270586827429	50	0	4	11	0	0	0.041458826345141	1
209	1	[555.1000000238419]	1	1	0.531635010883655	0.468364989116344	37	1	5	11	0	0	0.0632700217673109	1
209	1	[491.39999997615814]	1	1	0.539802694322181	0.460197305677818	37	1	6	11	0	0	0.079605388644363	1
209	1	[523.6000000238419]	1	0	0.487460600351821	0.512539399648178	25	0	7	11	0	0	0.025078799296357	0
209	1	[538.3999999761581]	1	1	0.556922988600622	0.443077011399377	32	0	8	11	0	0	0.113845977201245	1
209	1	[426]	1	1	0.596903262915589	0.40309673708441	25	1	9	11	0	0	0.193806525831179	1
209	1	[642.6999999880791]	1	1	0.530132021221095	0.469867978778904	25	1	10	11	0	0	0.060264042442191	1
209	0	[536.5]	1	0	0.434401272848613	0.565598727151386	25	1	11	11	0	0	0.131197454302773	1
209	1	[441.30000001192093]	1	1	0.584336635602213	0.415663364397786	19	1	12	11	0	0	0.168673271204427	1
209	1	[479.60000002384186]	1	1	0.58523651760828	0.414763482391719	12	1	13	11	0	0	0.170473035216561	1
209	0	[467]	1	0	0.47434757591803	0.525652424081969	28	0	14	11	0	0	0.051304848163939	1
209	0	[734.1999999880791]	1	0	0.488454669996533	0.511545330003466	24	1	15	11	0	0	0.0230906600069331	1
209	0	[483]	1	1	0.500277380485236	0.499722619514764	15	1	16	11	0	0	0.000554760970471968	0
209	0	[528.6000000238419]	1	0	0.495814682149832	0.504185317850167	20	0	17	11	0	0	0.00837063570033497	1
209	0	[525.3999999761581]	1	0	0.472793141735946	0.527206858264053	15	1	18	11	0	0	0.054413716528107	1
209	1	[466.0999999642372]	1	1	0.539297320485895	0.460702679514104	11	1	19	11	0	0	0.078594640971791	1
209	0	[516.4000000357628]	1	0	0.466789036441128	0.533210963558871	12	0	20	11	0	0	0.066421927117743	1
209	1	[590.4000000357628]	1	1	0.531375725483163	0.468624274516836	19	1	21	11	0	0	0.062751450966327	1
209	0	[480]	1	0	0.456228965025174	0.543771034974825	11	1	22	11	0	0	0.087542069949651	1
209	0	[483.10000002384186]	1	0	0.446216555402548	0.553783444597451	8	1	23	11	0	0	0.107566889194903	1
209	0	[962.3000000119209]	1	0	0.478627910507867	0.521372089492133	19	1	24	11	0	0	0.042744178984266	1
209	0	[518.5999999642372]	1	0	0.422526949956035	0.577473050043964	0	0	25	11	0	0	0.154946100087929	1
209	1	[441.10000002384186]	1	0	0.405608514967676	0.594391485032323	0	0	1	12	1	1	0.188782970064647	1
209	1	[455.10000002384186]	1	0	0.401815604638642	0.598184395361357	50	1	2	12	1	1	0.196368790722715	1
209	0	[834.6000000238419]	1	1	0.500525725430412	0.499474274569587	61	1	3	12	1	1	0.00105145086082498	1
209	0	[930.1000000238419]	1	1	0.508590162545614	0.491409837454386	72	1	4	12	1	1	0.017180325091228	1
209	0	[514.3000000119209]	1	1	0.584121629781445	0.415878370218554	85	1	5	12	1	1	0.168243259562891	1
209	0	[463.80000001192093]	1	1	0.599812498555032	0.400187501444967	79	0	6	12	1	1	0.199624997110065	1
209	1	[422.5]	1	0	0.419997872222523	0.580002127777476	73	0	7	12	1	1	0.160004255554953	1
209	0	[407.19999998807907]	1	1	0.582573057703781	0.417426942296218	77	1	8	12	1	1	0.165146115407563	1
209	1	[489.80000001192093]	1	0	0.478867485081026	0.521132514918973	79	1	9	12	1	1	0.0422650298379471	1
209	0	[425.5999999642372]	1	1	0.568489488485059	0.43151051151494	70	0	10	12	1	1	0.136978976970119	1
209	1	[461]	1	0	0.431507315771031	0.568492684228968	73	1	11	12	1	1	0.136985368457937	1
209	1	[433.4000000357628]	1	0	0.41608733939127	0.583912660608729	62	0	12	12	1	1	0.167825321217459	1
209	1	[390.39999997615814]	1	0	0.466115329450842	0.533884670549157	66	1	13	12	1	1	0.067769341098315	1
209	1	[411.5]	1	0	0.421862551178537	0.578137448821462	69	1	14	12	1	1	0.156274897642925	1
209	0	[715.2000000476837]	1	0	0.479392019916955	0.520607980083044	64	0	15	12	1	1	0.041215960166089	0
209	0	[576.1000000238419]	1	0	0.498179567215087	0.501820432784912	75	0	16	12	1	1	0.00364086556982496	0
209	0	[429.89999997615814]	1	1	0.551898678611341	0.448101321388658	72	1	17	12	1	1	0.103797357222683	1
209	1	[417.2999999523163]	1	0	0.425355258555335	0.574644741444664	73	0	18	12	1	1	0.149289482889329	1
209	0	[576.5]	1	1	0.529796332514469	0.47020366748553	55	0	19	12	1	1	0.059592665028939	1
209	0	[444.80000001192093]	1	1	0.555510515100621	0.444489484899378	73	1	20	12	1	1	0.111021030201243	1
209	1	[402.39999997615814]	1	0	0.465832774845381	0.534167225154618	75	1	21	12	1	1	0.068334450309237	1
209	0	[627]	1	1	0.528679376094116	0.471320623905883	73	1	22	12	1	1	0.057358752188233	1
209	1	[442.0999999642372]	1	0	0.44713885305971	0.552861146940289	80	1	23	12	1	1	0.105722293880579	1
209	0	[479.5999999642372]	1	1	0.576506316015103	0.423493683984896	81	1	24	12	1	1	0.153012632030207	1
209	0	[438.69999998807907]	1	1	0.593590966839177	0.406409033160822	83	0	25	12	1	1	0.187181933678355	1
