ID	choice	rt	condition_int	state	contrast_left	contrast_right	reward	trials	blocks	contrast	ecoperf
136	1	631.900000000372	1	0	0.465152034635221	0.534847965364778	1	1	1	1	1
136	0	525.5	1	0	0.493195019381299	0.5068049806187	1	2	1	1	0
136	1	706.799999998882	1	0	0.459456539304105	0.540543460695895	1	3	1	1	1
136	0	824.900000000372	1	0	0.478325244742418	0.521674755257581	1	4	1	1	0
136	1	720.60000000149	1	0	0.43099617868061	0.569003821319389	1	5	1	1	1
136	0	866.400000000372	1	0	0.498702873077302	0.501297126922698	1	6	1	1	0
136	0	742.5	1	0	0.436402148477169	0.56359785152283	1	7	1	1	0
136	1	664.800000000745	1	1	0.528368593058866	0.471631406941134	0	8	1	1	0
136	0	866.699999999254	1	0	0.480725180391605	0.519274819608394	1	9	1	1	0
136	0	627	1	1	0.510070750440375	0.489929249559624	0	10	1	1	1
136	0	722.5	1	1	0.528307511545439	0.47169248845456	0	11	1	1	1
136	0	522.900000000372	1	1	0.532330437818502	0.467669562181497	0	12	1	1	1
136	0	487.10000000149	1	1	0.548128410871476	0.451871589128523	0	13	1	1	1
136	0	488.900000000372	1	1	0.525885712490743	0.474114287509256	0	14	1	1	1
136	1	614.300000000745	1	0	0.425849789173677	0.574150210826322	1	15	1	1	1
136	0	602.10000000149	1	1	0.579592606979398	0.420407393020601	0	16	1	1	1
136	0	462.700000001117	1	1	0.571572151521391	0.428427848478608	0	17	1	1	1
136	0	697.700000001117	1	0	0.497691143868898	0.502308856131101	1	18	1	1	0
136	0	493	1	1	0.57911729696084	0.420882703039159	0	19	1	1	1
136	0	491.300000000745	1	1	0.547010741974122	0.452989258025877	0	20	1	1	1
136	1	569.300000000745	1	0	0.434955198936028	0.565044801063971	1	21	1	1	1
136	0	520	1	1	0.516788306685171	0.483211693314828	0	22	1	1	1
136	0	433.199999999254	1	1	0.542542720521053	0.457457279478946	0	23	1	1	1
136	0	517.400000000372	1	1	0.552154141496716	0.447845858503283	0	24	1	1	1
136	1	753.900000000372	1	0	0.453587286686079	0.54641271331392	1	25	1	1	1
136	0	416.599999999627	2	1	0.552690556464458	0.447309443535541	1	1	2	0	0
136	1	444.099999999627	2	1	0.546319030169461	0.453680969830538	1	2	2	0	1
136	1	540.300000000745	2	1	0.548598047761341	0.451401952238658	1	3	2	0	1
136	0	535.300000000745	2	0	0.439744998834223	0.560255001165776	0	4	2	0	1
136	1	518.400000000372	2	1	0.569087424044359	0.43091257595564	1	5	2	0	1
136	0	580.200000001117	2	0	0.458920675467352	0.541079324532647	0	6	2	0	1
136	1	452.400000000372	2	1	0.531869056388501	0.468130943611498	1	7	2	0	1
136	1	554.299999998882	2	1	0.547284274632072	0.452715725367928	1	8	2	0	1
136	1	514.099999999627	2	0	0.486546308035997	0.513453691964002	0	9	2	0	0
136	1	913.800000000745	2	0	0.492818276089584	0.507181723910415	0	10	2	0	0
136	1	542.200000001117	2	1	0.527006506160489	0.47299349383951	1	11	2	0	1
136	0	573.199999999254	2	0	0.459142625413222	0.540857374586777	0	12	2	0	1
136	1	529.300000000745	2	1	0.503814469841143	0.496185530158856	1	13	2	0	1
136	0	514.899999998509	2	0	0.434059356359089	0.56594064364091	0	14	2	0	1
136	1	540.900000000372	2	1	0.525444473685593	0.474555526314406	1	15	2	0	1
136	0	523.099999999627	2	0	0.479278237824613	0.520721762175387	0	16	2	0	1
136	0	519.699999999254	2	0	0.438415277830951	0.561584722169048	0	17	2	0	1
136	0	665.900000000372	2	0	0.47959292627634	0.52040707372366	0	18	2	0	1
136	1	439.699999999254	2	1	0.522093236555488	0.477906763444511	1	19	2	0	1
136	0	437.5	2	0	0.447374426707554	0.552625573292445	0	20	2	0	1
136	1	450.699999999254	2	1	0.502453041931497	0.497546958068502	1	21	2	0	1
136	1	525.699999999254	2	1	0.535279990458784	0.464720009541215	1	22	2	0	1
136	0	475.099999999627	2	0	0.42339052669317	0.576609473306829	0	23	2	0	1
136	0	383	2	0	0.43428837148559	0.565711628514409	0	24	2	0	1
136	1	608.300000000745	2	0	0.472585158912314	0.527414841087685	0	25	2	0	0
136	1	398.700000001117	3	0	0.136703672382928	0.863296327617071	0	1	3	0	0
136	0	429.199999999254	3	0	0.145050702356207	0.854949297643792	0	2	3	0	1
136	0	396.300000000745	3	1	0.879747034103326	0.120252965896673	1	3	3	0	0
136	0	554.400000000372	3	1	0.80142236395101	0.198577636048989	1	4	3	0	0
136	1	849.900000000372	3	1	0.820730216276676	0.179269783723323	1	5	3	0	1
136	1	397.5	3	0	0.183399825551606	0.816600174448393	0	6	3	0	0
136	0	646.400000000372	3	1	0.836903706595759	0.16309629340424	1	7	3	0	0
136	1	449.399999998509	3	1	0.866776911007258	0.133223088992741	1	8	3	0	1
136	0	764.400000000372	3	0	0.14710821110864	0.852891788891359	0	9	3	0	1
136	1	332.5	3	0	0.15919571870906	0.840804281290939	0	10	3	0	0
136	1	460.599999999627	3	1	0.822658855669422	0.177341144330577	1	11	3	0	1
136	0	383.400000000372	3	1	0.829741650639122	0.170258349360877	1	12	3	0	0
136	0	550.199999999254	3	1	0.804546166402623	0.195453833597377	1	13	3	0	0
136	1	461.5	3	0	0.169212310793075	0.830787689206924	0	14	3	0	0
136	0	761.199999999254	3	1	0.856547519230145	0.143452480769855	1	15	3	0	0
136	1	615.200000001117	3	1	0.832693369429252	0.167306630570747	1	16	3	0	1
136	1	417.599999999627	3	1	0.8791946614164	0.120805338583599	1	17	3	0	1
136	0	713.900000000372	3	0	0.166620063813942	0.833379936186057	0	18	3	0	1
136	1	660.5	3	1	0.835849429181036	0.164150570818963	1	19	3	0	1
136	0	519.10000000149	3	0	0.128729019033243	0.871270980966756	0	20	3	0	1
136	0	461.099999999627	3	0	0.199923616297353	0.800076383702646	0	21	3	0	1
136	1	365.800000000745	3	0	0.188628847587833	0.811371152412166	0	22	3	0	0
136	1	412.300000000745	3	0	0.174735608528548	0.825264391471451	0	23	3	0	0
136	1	448.099999999627	3	1	0.877337641855908	0.122662358144091	1	24	3	0	1
136	NaN	554.699999999254	3	0	0.123917037522611	0.876082962477388	0	25	3	0	0
136	1	565.300000000745	4	0	0.176659368547063	0.823340631452936	0	1	4	0	0
136	0	413.800000000745	4	0	0.169048924161942	0.830951075838058	0	2	4	0	1
136	1	412	4	1	0.859891496528391	0.140108503471608	1	3	4	0	1
136	1	421.099999999627	4	1	0.861557425545795	0.138442574454204	1	4	4	0	1
136	1	464.299999998882	4	1	0.80082623936122	0.199173760638779	1	5	4	0	1
136	0	394.5	4	0	0.128270758247241	0.871729241752758	0	6	4	0	1
136	1	454.199999999254	4	1	0.839879688296751	0.160120311703248	1	7	4	0	1
136	0	420.900000000372	4	1	0.800259880022895	0.199740119977104	1	8	4	0	0
136	1	440	4	1	0.859352567294293	0.140647432705707	1	9	4	0	1
136	0	370.599999999627	4	0	0.16782636777301	0.832173632226989	0	10	4	0	1
136	0	415.5	4	0	0.191342551733396	0.808657448266603	0	11	4	0	1
136	1	419.899999998509	4	1	0.806611503675899	0.193388496324101	1	12	4	0	1
136	0	363.800000000745	4	0	0.130912969840052	0.869087030159947	0	13	4	0	1
136	0	382.099999999627	4	0	0.135401907210893	0.864598092789106	0	14	4	0	1
136	0	511.799999998882	4	0	0.142435792252903	0.857564207747096	0	15	4	0	1
136	0	420.400000000372	4	0	0.15001298034691	0.849987019653089	0	16	4	0	1
136	1	442.699999999254	4	1	0.849070031448498	0.150929968551502	1	17	4	0	1
136	1	426.5	4	1	0.83324181166758	0.166758188332419	1	18	4	0	1
136	1	442.5	4	1	0.866574813214242	0.133425186785757	1	19	4	0	1
136	0	426.199999999254	4	0	0.194688047061184	0.805311952938815	0	20	4	0	1
136	1	467.199999999254	4	1	0.82449855251384	0.175501447486159	1	21	4	0	1
136	1	408.099999999627	4	1	0.82608319230644	0.17391680769356	1	22	4	0	1
136	0	494.199999999254	4	0	0.182412270108798	0.817587729891201	0	23	4	0	1
136	1	433.799999998882	4	1	0.876603368592664	0.123396631407335	1	24	4	0	1
136	0	444.199999999254	4	0	0.129556752892334	0.870443247107665	0	25	4	0	1
136	0	436.099999999627	4	1	0.812911867491062	0.187088132508937	0	1	5	1	1
136	1	332.699999999254	4	0	0.170196237467908	0.829803762532092	1	2	5	1	1
136	0	349.599999999627	4	1	0.834571990047222	0.165428009952777	0	3	5	1	1
136	1	399.5	4	0	0.155511424527947	0.844488575472052	1	4	5	1	1
136	1	387.400000000372	4	0	0.150256962769366	0.849743037230633	1	5	5	1	1
136	0	551.300000000745	4	1	0.825932982100085	0.174067017899914	0	6	5	1	1
136	0	497.799999998882	4	1	0.805035201392895	0.194964798607104	0	7	5	1	1
136	0	818.199999999254	4	0	0.146750784794934	0.853249215205065	1	8	5	1	0
136	1	860.599999999627	4	0	0.137528557686845	0.862471442313154	1	9	5	1	1
136	0	391.300000000745	4	1	0.834702968690799	0.1652970313092	0	10	5	1	1
136	0	407.800000000745	4	1	0.804649976267629	0.19535002373237	0	11	5	1	1
136	0	403.200000001117	4	1	0.879673496451192	0.120326503548807	0	12	5	1	1
136	1	427.5	4	0	0.127538127006631	0.872461872993368	1	13	5	1	1
136	0	390.700000001117	4	1	0.852323687133084	0.147676312866915	0	14	5	1	1
136	1	439.10000000149	4	0	0.138329692104505	0.861670307895494	1	15	5	1	1
136	1	515	4	0	0.195446285480562	0.804553714519437	1	16	5	1	1
136	0	487	4	1	0.802581260335975	0.197418739664024	0	17	5	1	1
136	1	403.099999999627	4	0	0.150422359424198	0.849577640575801	1	18	5	1	1
136	0	362.299999998882	4	1	0.835044117914438	0.164955882085561	0	19	5	1	1
136	1	408.899999998509	4	0	0.198036555379271	0.801963444620728	1	20	5	1	1
136	0	380.900000000372	4	1	0.800068936708204	0.199931063291795	0	21	5	1	1
136	0	405.400000000372	4	1	0.875019274111875	0.124980725888124	0	22	5	1	1
136	0	394.299999998882	4	1	0.818888156871384	0.181111843128615	0	23	5	1	1
136	1	357.199999999254	4	0	0.192109262151849	0.80789073784815	1	24	5	1	1
136	1	379.200000001117	4	0	0.180096426997383	0.819903573002617	1	25	5	1	1
136	0	548.299999998882	2	1	0.577284920828871	0.422715079171128	0	1	6	1	1
136	0	890.399999998509	2	0	0.482449644141543	0.517550355858457	1	2	6	1	0
136	0	886.800000000745	2	1	0.574275988236701	0.425724011763298	0	3	6	1	1
136	1	490.099999999627	2	0	0.430694313356726	0.569305686643273	1	4	6	1	1
136	0	424.5	2	1	0.557439598752067	0.442560401247933	0	5	6	1	1
136	0	481.400000000372	2	1	0.564224637465497	0.435775362534502	0	6	6	1	1
136	0	408.199999999254	2	1	0.516789210436956	0.483210789563043	0	7	6	1	1
136	0	717.399999998509	2	1	0.526482435931029	0.47351756406897	0	8	6	1	1
136	1	671.299999998882	2	1	0.504148658970583	0.495851341029416	0	9	6	1	0
136	0	886.900000000372	2	0	0.423165391230982	0.576834608769018	1	10	6	1	0
136	0	779.599999999627	2	1	0.534298872152305	0.465701127847694	0	11	6	1	1
136	0	554.199999999254	2	0	0.489612357360742	0.510387642639257	1	12	6	1	0
136	1	668.700000001117	2	0	0.458515727827852	0.541484272172147	1	13	6	1	1
136	0	478.800000000745	2	1	0.576893094314275	0.423106905685724	0	14	6	1	1
136	1	494.199999999254	2	0	0.447449701823103	0.552550298176896	1	15	6	1	1
136	0	512.900000000372	2	1	0.565403465649986	0.434596534350013	0	16	6	1	1
136	0	472.799999998882	2	1	0.549611588432142	0.450388411567857	0	17	6	1	1
136	1	490.5	2	0	0.434259132227512	0.565740867772488	1	18	6	1	1
136	0	432.599999999627	2	1	0.526698111521479	0.473301888478521	0	19	6	1	1
136	0	388.400000000372	2	0	0.440926124834305	0.559073875165694	1	20	6	1	0
136	1	733.5	2	1	0.541672540410013	0.458327459589987	0	21	6	1	0
136	0	686.300000000745	2	0	0.43874696717851	0.561253032821489	1	22	6	1	0
136	1	678.300000000745	2	0	0.44313487010774	0.556865129892259	1	23	6	1	1
136	1	795.299999998882	2	0	0.499137368678491	0.500862631321508	1	24	6	1	1
136	0	514.399999998509	2	0	0.432832580735762	0.567167419264237	1	25	6	1	0
136	1	617.599999999627	3	1	0.807907534636624	0.192092465363375	0	1	7	1	0
136	1	397.899999998509	3	0	0.194222709470181	0.805777290529818	1	2	7	1	1
136	0	376.299999998882	3	1	0.838722673026933	0.161277326973066	0	3	7	1	1
136	1	422.200000001117	3	1	0.873434014193451	0.126565985806548	0	4	7	1	0
136	1	519.900000000372	3	0	0.148837354679634	0.851162645320365	1	5	7	1	1
136	0	360.10000000149	3	1	0.822874727231688	0.177125272768311	0	6	7	1	1
136	0	407.900000000372	3	1	0.862920721626994	0.137079278373005	0	7	7	1	1
136	0	520.099999999627	3	1	0.842583961791655	0.157416038208344	0	8	7	1	1
136	1	472.099999999627	3	0	0.147105532572689	0.85289446742731	1	9	7	1	1
136	1	343.400000000372	3	0	0.178582691161217	0.821417308838782	1	10	7	1	1
136	0	464.200000001117	3	0	0.147558371644343	0.852441628355656	1	11	7	1	0
136	1	326.800000000745	3	0	0.188313505417206	0.811686494582793	1	12	7	1	1
136	0	305.599999999627	3	1	0.833736104117907	0.166263895882092	0	13	7	1	1
136	1	306.799999998882	3	0	0.167501393908103	0.832498606091896	1	14	7	1	1
136	0	325.799999998882	3	1	0.836020045306995	0.163979954693004	0	15	7	1	1
136	1	371.900000000372	3	0	0.174063818688133	0.825936181311866	1	16	7	1	1
136	1	319.5	3	1	0.855604109155832	0.144395890844167	0	17	7	1	0
136	1	351.300000000745	3	0	0.131005527967392	0.868994472032607	1	18	7	1	1
136	0	282.700000001117	3	1	0.826699922370245	0.173300077629754	0	19	7	1	1
136	1	332.900000000372	3	0	0.196712269903748	0.803287730096251	1	20	7	1	1
136	0	405.300000000745	3	0	0.12153004307054	0.878469956929459	1	21	7	1	0
136	0	260.599999999627	3	0	0.125086773702744	0.874913226297255	1	22	7	1	0
136	1	343.199999999254	3	1	0.845843568074267	0.154156431925732	0	23	7	1	0
136	0	332.099999999627	3	0	0.195000395288813	0.804999604711186	1	24	7	1	0
136	1	286.5	3	1	0.867084004435506	0.132915995564493	0	25	7	1	0
136	1	287.900000000372	1	0	0.476856727370869	0.52314327262913	0	1	8	0	0
136	1	447	1	1	0.537631159476042	0.462368840523957	1	2	8	0	1
136	1	598.200000001117	1	1	0.529869676309052	0.470130323690947	1	3	8	0	1
136	0	586.800000000745	1	0	0.432634182556603	0.567365817443396	0	4	8	0	1
136	0	351.400000000372	1	1	0.505588964451244	0.494411035548755	1	5	8	0	0
136	1	413.199999999254	1	1	0.575246131765622	0.424753868234377	1	6	8	0	1
136	0	536.599999999627	1	0	0.433066833353942	0.566933166646057	0	7	8	0	1
136	1	485.400000000372	1	1	0.57333878847088	0.426661211529119	1	8	8	0	1
136	0	569.599999999627	1	0	0.426274993438558	0.573725006561442	0	9	8	0	1
136	0	494.099999999627	1	0	0.436374938892766	0.563625061107233	0	10	8	0	1
136	0	597.199999999254	1	0	0.450030491367621	0.549969508632378	0	11	8	0	1
136	1	578.099999999627	1	1	0.544507664221185	0.455492335778814	1	12	8	0	1
136	0	478.699999999254	1	0	0.469967426716094	0.530032573283906	0	13	8	0	1
136	1	526.299999998882	1	1	0.530377687839292	0.469622312160707	1	14	8	0	1
136	1	563.699999999254	1	1	0.550634893061408	0.449365106938592	1	15	8	0	1
136	0	480.099999999627	1	0	0.422526729522647	0.577473270477353	0	16	8	0	1
136	0	593	1	0	0.449156446133474	0.550843553866525	0	17	8	0	1
136	1	602.60000000149	1	0	0.487202696887148	0.512797303112851	0	18	8	0	0
136	1	579.10000000149	1	1	0.556724722376697	0.443275277623302	1	19	8	0	1
136	0	513.400000000372	1	0	0.444296037525631	0.555703962474368	0	20	8	0	1
136	1	579.199999999254	1	0	0.490559044850842	0.509440955149157	0	21	8	0	0
136	1	584.700000001117	1	1	0.570206130030293	0.429793869969706	1	22	8	0	1
136	1	671.599999999627	1	1	0.575102414533431	0.424897585466568	1	23	8	0	1
136	0	619.399999998509	1	1	0.500815888136758	0.499184111863241	1	24	8	0	0
136	1	620	1	1	0.575381202845558	0.424618797154441	1	25	8	0	1
136	1	626.800000000745	3	0	0.16520273074218	0.834797269257819	0	1	9	0	0
136	0	421	3	0	0.157170729213229	0.84282927078677	0	2	9	0	1
136	0	461.400000000372	3	0	0.134843719347243	0.865156280652756	0	3	9	0	1
136	0	460.900000000372	3	0	0.13940246967993	0.860597530320069	0	4	9	0	1
136	1	390.900000000372	3	1	0.831258339488361	0.168741660511638	1	5	9	0	1
136	1	431.599999999627	3	0	0.134603409345057	0.865396590654942	0	6	9	0	0
136	1	661.099999999627	3	1	0.849371775062858	0.150628224937141	1	7	9	0	1
136	1	493.599999999627	3	1	0.844500534427466	0.155499465572533	1	8	9	0	1
136	1	410.5	3	0	0.128364172329953	0.871635827670046	0	9	9	0	0
136	0	305.10000000149	3	1	0.858751079166186	0.141248920833813	1	10	9	0	0
136	0	427.400000000372	3	0	0.164131747930644	0.835868252069355	0	11	9	0	1
136	0	425.099999999627	3	0	0.152955687951332	0.847044312048667	0	12	9	0	1
136	1	436.5	3	1	0.846588682582509	0.15341131741749	1	13	9	0	1
136	1	428	3	1	0.800068998200698	0.199931001799301	1	14	9	0	1
136	0	408	3	0	0.146719958807407	0.853280041192592	0	15	9	0	1
136	1	368.099999999627	3	1	0.807670767799094	0.192329232200905	1	16	9	0	1
136	0	275.5	3	1	0.863537078140459	0.13646292185954	1	17	9	0	0
136	0	360.599999999627	3	1	0.858050712723231	0.141949287276769	1	18	9	0	0
136	1	416.300000000745	3	0	0.165812777282461	0.834187222717538	0	19	9	0	0
136	0	345.5	3	0	0.127053644574586	0.872946355425413	0	20	9	0	1
136	1	522.699999999254	3	1	0.806839485786031	0.193160514213968	1	21	9	0	1
136	0	389.60000000149	3	0	0.158491538662675	0.841508461337324	0	22	9	0	1
136	1	395.5	3	1	0.855723599069514	0.144276400930485	1	23	9	0	1
136	1	458.900000000372	3	1	0.84713992475152	0.152860075248479	1	24	9	0	1
136	0	380.5	3	0	0.171052956873211	0.828947043126788	0	25	9	0	1
136	1	432.400000000372	4	1	0.857357036362106	0.142642963637893	1	1	10	0	1
136	0	396.900000000372	4	0	0.160861334642736	0.839138665357263	0	2	10	0	1
136	1	397.599999999627	4	1	0.82910786064084	0.17089213935916	1	3	10	0	1
136	0	439.699999999254	4	0	0.194156620005637	0.805843379994362	0	4	10	0	1
136	1	414.800000000745	4	1	0.858049822213652	0.141950177786347	1	5	10	0	1
136	0	396.200000001117	4	0	0.161988332972913	0.838011667027086	0	6	10	0	1
136	0	540.5	4	0	0.192068041302337	0.807931958697662	0	7	10	0	1
136	0	471.60000000149	4	0	0.177501677005145	0.822498322994854	0	8	10	0	1
136	1	424	4	1	0.828441133708352	0.171558866291647	1	9	10	0	1
136	0	436.200000001117	4	0	0.17386071500738	0.826139284992619	0	10	10	0	1
136	1	461.900000000372	4	1	0.873202429913124	0.126797570086875	1	11	10	0	1
136	0	415.599999999627	4	0	0.139988112210374	0.860011887789625	0	12	10	0	1
136	1	432.200000001117	4	1	0.842179139375275	0.157820860624724	1	13	10	0	1
136	1	474.700000001117	4	1	0.81361937115373	0.186380628846269	1	14	10	0	1
136	1	453.900000000372	4	1	0.852298851393673	0.147701148606326	1	15	10	0	1
136	0	492.200000001117	4	0	0.131631218566294	0.868368781433705	0	16	10	0	1
136	1	522.599999999627	4	1	0.830488404182713	0.169511595817287	1	17	10	0	1
136	1	435.599999999627	4	1	0.836330139074975	0.163669860925025	1	18	10	0	1
136	0	429.099999999627	4	0	0.131658517741469	0.86834148225853	0	19	10	0	1
136	0	470.5	4	0	0.165008065739201	0.834991934260799	0	20	10	0	1
136	1	409	4	1	0.860175795176826	0.139824204823173	1	21	10	0	1
136	1	467.400000000372	4	1	0.874665391388599	0.1253346086114	1	22	10	0	1
136	0	406.400000000372	4	0	0.191007497804913	0.808992502195087	0	23	10	0	1
136	0	423.599999999627	4	0	0.140095398932838	0.859904601067161	0	24	10	0	1
136	1	440.200000001117	4	1	0.803598915671916	0.196401084328083	1	25	10	0	1
136	1	533.700000001117	2	0	0.493828053953753	0.506171946046246	1	1	11	1	1
136	0	416.799999998882	2	0	0.486481987873434	0.513518012126565	1	2	11	1	0
136	0	763.60000000149	2	0	0.471172996582616	0.528827003417383	1	3	11	1	0
136	0	642.099999999627	2	0	0.46793837480622	0.532061625193779	1	4	11	1	0
136	1	498.799999998882	2	1	0.527731193382432	0.472268806617567	0	5	11	1	0
136	1	386.5	2	0	0.478322472404086	0.521677527595913	1	6	11	1	1
136	0	596.800000000745	2	1	0.521020809462196	0.478979190537803	0	7	11	1	1
136	1	467.400000000372	2	1	0.564624206690587	0.435375793309412	0	8	11	1	0
136	0	413.900000000372	2	0	0.489149335056934	0.510850664943065	1	9	11	1	0
136	0	586.5	2	0	0.431623508584884	0.568376491415115	1	10	11	1	0
136	1	467.599999999627	2	1	0.573200903619951	0.426799096380048	0	11	11	1	0
136	1	643.300000000745	2	1	0.541341813030379	0.45865818696962	0	12	11	1	0
136	0	520	2	0	0.438862517556555	0.561137482443444	1	13	11	1	0
136	1	649.5	2	1	0.546088906951962	0.453911093048037	0	14	11	1	0
136	1	836.700000001117	2	0	0.496093972795696	0.503906027204303	1	15	11	1	1
136	1	739.800000000745	2	1	0.559282740253327	0.440717259746672	0	16	11	1	0
136	1	534.400000000372	2	1	0.523501901812942	0.476498098187057	0	17	11	1	0
136	0	439.5	2	0	0.456314921480078	0.543685078519921	1	18	11	1	0
136	1	360.799999998882	2	0	0.437547216681903	0.562452783318096	1	19	11	1	1
136	0	445.300000000745	2	1	0.502697832759254	0.497302167240746	0	20	11	1	1
136	0	552	2	1	0.51932829906656	0.480671700933439	0	21	11	1	1
136	1	463	2	1	0.522176079286301	0.477823920713699	0	22	11	1	0
136	0	515.099999999627	2	1	0.576436334241808	0.423563665758191	0	23	11	1	1
136	0	436.699999999254	2	1	0.541267864345715	0.458732135654284	0	24	11	1	1
136	0	532.900000000372	2	0	0.465612896732079	0.534387103267921	1	25	11	1	0
136	1	755	3	0	0.186581147316558	0.813418852683441	1	1	12	1	1
136	1	452.400000000372	3	1	0.837253832065134	0.162746167934865	0	2	12	1	0
136	0	526	3	0	0.18706788497617	0.81293211502383	1	3	12	1	0
136	1	567.200000001117	3	0	0.190251162104216	0.809748837895783	1	4	12	1	1
136	0	767.800000000745	3	1	0.812847253058517	0.187152746941482	0	5	12	1	1
136	1	412.599999999627	3	1	0.816986856443471	0.183013143556528	0	6	12	1	0
136	1	560.700000001117	3	0	0.178465753954507	0.821534246045492	1	7	12	1	1
136	1	423.200000001117	3	0	0.152236518054982	0.847763481945017	1	8	12	1	1
136	1	724.400000000372	3	0	0.18271862106579	0.817281378934209	1	9	12	1	1
136	0	297.599999999627	3	1	0.862960027712935	0.137039972287064	0	10	12	1	1
136	1	572.5	3	1	0.872171114952262	0.127828885047737	0	11	12	1	0
136	1	749.800000000745	3	1	0.805453569850914	0.194546430149085	0	12	12	1	0
136	1	421.099999999627	3	0	0.16756016193659	0.832439838063409	1	13	12	1	1
136	0	336.199999999254	3	1	0.857814647565154	0.142185352434845	0	14	12	1	1
136	1	386.60000000149	3	0	0.142523569209127	0.857476430790872	1	15	12	1	1
136	1	318.900000000372	3	1	0.835135026033445	0.164864973966554	0	16	12	1	0
136	0	405.400000000372	3	1	0.850433183652213	0.149566816347786	0	17	12	1	1
136	1	344.300000000745	3	0	0.153034894195447	0.846965105804552	1	18	12	1	1
136	0	360.299999998882	3	1	0.86879277307418	0.131207226925819	0	19	12	1	1
136	0	401.599999999627	3	1	0.84832967934007	0.15167032065993	0	20	12	1	1
136	1	566.299999998882	3	0	0.166885660311126	0.833114339688873	1	21	12	1	1
136	1	440.199999999254	3	0	0.158275494233872	0.841724505766127	1	22	12	1	1
136	0	366.599999999627	3	1	0.821124655601281	0.178875344398718	0	23	12	1	1
136	0	450	3	1	0.828940690960473	0.171059309039526	0	24	12	1	1
136	1	357.099999999627	3	0	0.175627180822867	0.824372819177132	1	25	12	1	1
136	0	547.800000000745	1	0	0.466974191330302	0.533025808669697	0	1	13	0	1
136	1	565.599999999627	1	0	0.46709555828677	0.532904441713229	0	2	13	0	0
136	0	518.699999999254	1	0	0.46559923712383	0.534400762876169	0	3	13	0	1
136	1	386.900000000372	1	1	0.506787138689296	0.493212861310704	1	4	13	0	1
136	0	487.799999998882	1	1	0.501367411620821	0.498632588379178	1	5	13	0	0
136	1	421.799999998882	1	0	0.456342882125786	0.543657117874213	0	6	13	0	0
136	0	455.5	1	0	0.451058398012398	0.548941601987601	0	7	13	0	1
136	0	562.200000001117	1	0	0.433185818088061	0.566814181911938	0	8	13	0	1
136	1	574.800000000745	1	1	0.552415620090204	0.447584379909795	1	9	13	0	1
136	1	704.300000000745	1	1	0.530178755792784	0.469821244207215	1	10	13	0	1
136	1	638.300000000745	1	1	0.555410246494138	0.444589753505861	1	11	13	0	1
136	0	376.699999999254	1	0	0.478601135397926	0.521398864602073	0	12	13	0	1
136	0	567.5	1	0	0.430355388371568	0.569644611628431	0	13	13	0	1
136	1	512.599999999627	1	0	0.452676782094305	0.547323217905694	0	14	13	0	0
136	1	466.199999999254	1	1	0.534304934906147	0.465695065093852	1	15	13	0	1
136	0	489	1	0	0.437346660600184	0.562653339399815	0	16	13	0	1
136	1	436	1	1	0.541422117903154	0.458577882096845	1	17	13	0	1
136	1	499.5	1	1	0.528702420325681	0.471297579674318	1	18	13	0	1
136	1	445.699999999254	1	1	0.570749714270314	0.429250285729686	1	19	13	0	1
136	0	506.099999999627	1	0	0.432400032209903	0.567599967790097	0	20	13	0	1
136	1	416.699999999254	1	1	0.519493627386617	0.480506372613382	1	21	13	0	1
136	0	544.60000000149	1	0	0.474884955526647	0.525115044473353	0	22	13	0	1
136	0	559.299999998882	1	0	0.430004031127887	0.569995968872112	0	23	13	0	1
136	1	428.799999998882	1	1	0.523568751990286	0.476431248009713	1	24	13	0	1
136	0	510.400000000372	1	1	0.556728485782953	0.443271514217046	1	25	13	0	0
136	1	485	1	1	0.553370516260838	0.446629483739162	0	1	14	1	0
136	0	519.10000000149	1	1	0.514676977416152	0.485323022583847	0	2	14	1	1
136	0	624	1	1	0.54250298545644	0.457497014543559	0	3	14	1	1
136	1	433	1	0	0.43391673603995	0.566083263960049	1	4	14	1	1
136	1	490.699999999254	1	0	0.437934051674258	0.562065948325741	1	5	14	1	1
136	0	397	1	1	0.531542944350069	0.46845705564993	0	6	14	1	1
136	1	795.800000000745	1	0	0.464801223979074	0.535198776020925	1	7	14	1	1
136	0	733	1	0	0.480103103365809	0.51989689663419	1	8	14	1	0
136	0	655.5	1	0	0.496600463170089	0.50339953682991	1	9	14	1	0
136	1	566.400000000372	1	0	0.495015304285332	0.504984695714667	1	10	14	1	1
136	0	400.700000001117	1	1	0.526431639847486	0.473568360152513	0	11	14	1	1
136	1	397.5	1	0	0.474996262021145	0.525003737978854	1	12	14	1	1
136	0	364.199999999254	1	0	0.493460903781731	0.506539096218268	1	13	14	1	0
136	1	388.800000000745	1	1	0.574290234198188	0.425709765801811	0	14	14	1	0
136	0	345.099999999627	1	1	0.525157369008708	0.474842630991291	0	15	14	1	1
136	1	374.800000000745	1	1	0.547709962337719	0.452290037662281	0	16	14	1	0
136	0	286.199999999254	1	0	0.461224110565128	0.538775889434871	1	17	14	1	0
136	1	360.700000001117	1	0	0.441451982255631	0.558548017744368	1	18	14	1	1
136	0	426.899999998509	1	1	0.530754867983885	0.469245132016114	0	19	14	1	1
136	0	296.700000001117	1	1	0.54985094760703	0.450149052392969	0	20	14	1	1
136	1	576	1	1	0.525217444202549	0.47478255579745	0	21	14	1	0
136	0	447	1	1	0.529773311337332	0.470226688662667	0	22	14	1	1
136	0	505.5	1	0	0.494632445058128	0.505367554941872	1	23	14	1	0
136	0	410.700000001117	1	0	0.450603464263648	0.549396535736351	1	24	14	1	0
136	1	363.199999999254	1	0	0.423965869082047	0.576034130917952	1	25	14	1	1
136	0	404.300000000745	4	1	0.869829520459707	0.130170479540292	0	1	15	1	1
136	0	377.899999998509	4	1	0.875101651219273	0.124898348780726	0	2	15	1	1
136	1	355.400000000372	4	0	0.19096954152879	0.80903045847121	1	3	15	1	1
136	0	358.300000000745	4	1	0.846301808632417	0.153698191367582	0	4	15	1	1
136	0	367.5	4	1	0.875523724802403	0.124476275197596	0	5	15	1	1
136	1	365.400000000372	4	0	0.158765460012346	0.841234539987653	1	6	15	1	1
136	1	399.5	4	0	0.167864151766365	0.832135848233634	1	7	15	1	1
136	0	317.599999999627	4	1	0.868138105838473	0.131861894161526	0	8	15	1	1
136	0	420.800000000745	4	1	0.864283023423692	0.135716976576307	0	9	15	1	1
136	1	322.599999999627	4	0	0.189285858051285	0.810714141948714	1	10	15	1	1
136	0	364.700000001117	4	1	0.860863826973647	0.139136173026352	0	11	15	1	1
136	0	422	4	1	0.872955112084964	0.127044887915035	0	12	15	1	1
136	1	362.099999999627	4	0	0.153275911875063	0.846724088124936	1	13	15	1	1
136	1	431.799999998882	4	0	0.129966093186965	0.870033906813034	1	14	15	1	1
136	0	360.099999999627	4	1	0.831107102263096	0.168892897736903	0	15	15	1	1
136	0	411.599999999627	4	1	0.87177733994104	0.128222660058959	0	16	15	1	1
136	1	369.599999999627	4	0	0.142598445954196	0.857401554045804	1	17	15	1	1
136	1	396	4	0	0.148283281009447	0.851716718990552	1	18	15	1	1
136	0	373.200000001117	4	1	0.844666133979259	0.15533386602074	0	19	15	1	1
136	0	400.60000000149	4	1	0.867018261034227	0.132981738965772	0	20	15	1	1
136	1	381.700000001117	4	0	0.182973857563793	0.817026142436206	1	21	15	1	1
136	1	404.099999999627	4	0	0.145460522716201	0.854539477283798	1	22	15	1	1
136	0	402.900000000372	4	1	0.873780684057275	0.126219315942724	0	23	15	1	1
136	1	426	4	0	0.175863762484463	0.824136237515536	1	24	15	1	1
136	1	404.900000000372	4	0	0.121384194892522	0.878615805107477	1	25	15	1	1
136	1	685.599999999627	2	0	0.492151104676932	0.507848895323067	0	1	16	0	0
136	1	396.799999998882	2	0	0.490821992608379	0.509178007391621	0	2	16	0	0
136	0	570.099999999627	2	1	0.542295127030723	0.457704872969276	1	3	16	0	0
136	1	417.200000001117	2	1	0.541530340951411	0.458469659048588	1	4	16	0	1
136	1	418.800000000745	2	1	0.555981823824369	0.44401817617563	1	5	16	0	1
136	1	454	2	1	0.549023119625388	0.450976880374611	1	6	16	0	1
136	0	593.400000000372	2	0	0.461523005185336	0.538476994814663	0	7	16	0	1
136	1	383.900000000372	2	1	0.516795226847563	0.483204773152436	1	8	16	0	1
136	1	510.099999999627	2	1	0.535787131931507	0.464212868068492	1	9	16	0	1
136	1	492	2	1	0.575294348887903	0.424705651112096	1	10	16	0	1
136	0	478.899999998509	2	0	0.436938254396427	0.563061745603572	0	11	16	0	1
136	0	450.900000000372	2	0	0.481259336574761	0.518740663425239	0	12	16	0	1
136	0	397.800000000745	2	1	0.541661371864166	0.458338628135834	1	13	16	0	0
136	1	586.099999999627	2	1	0.522911348642011	0.477088651357988	1	14	16	0	1
136	0	476.400000000372	2	0	0.491116277559498	0.508883722440501	0	15	16	0	1
136	1	407.300000000745	2	1	0.565380577890482	0.434619422109517	1	16	16	0	1
136	1	448.599999999627	2	1	0.577958887063761	0.422041112936238	1	17	16	0	1
136	0	461	2	0	0.436170674413333	0.563829325586666	0	18	16	0	1
136	1	567	2	0	0.458678156772757	0.541321843227242	0	19	16	0	0
136	1	609.900000000372	2	1	0.506884063426028	0.493115936573971	1	20	16	0	1
136	0	413.699999999254	2	0	0.440264713060263	0.559735286939737	0	21	16	0	1
136	1	586.200000001117	2	1	0.523838406599817	0.476161593400182	1	22	16	0	1
136	0	442.699999999254	2	0	0.438054372867129	0.56194562713287	0	23	16	0	1
136	0	434.099999999627	2	0	0.447639419361406	0.552360580638594	0	24	16	0	1
136	0	620.199999999254	2	0	0.467590694203741	0.532409305796258	0	25	16	0	1
