ID	choice	rt	choice_cond	state	contrast_left	contrast_right	mu	correct	trials	blocks	contrast	congruence	con_diff_choice	ecoperf
307	1	[726.0999999996275]	3	0	0.147686128638392	0.852313871361607	50	0	1	1	0	0	0.704627742723215	0
307	1	[624.7000000011176,775.5,912.5999999996275]	3	0	0.11674714089619	0.883252859103809	24	0	2	1	0	0	0.766505718207619	0
307	1	[477.5,620.7999999988824,758.2999999988824,906.3999999985099]	3	1	0.855333177625279	0.14466682237472	21	1	3	1	0	0	0.710666355250559	1
307	0	[651.3000000007451,770.1999999992549]	3	0	0.0988648993137791	0.90113510068622	13	1	4	1	0	0	0.802270201372441	1
307	1	[460]	3	1	0.932692535363894	0.0673074646361058	10	1	5	1	0	0	0.865385070727788	1
307	1	[362.90000000037253,764.5999999996275,978.5]	3	1	0.898410067953075	0.101589932046924	24	0	6	1	0	0	0.796820135906151	1
307	1	[390.30000000074506,522.7000000011176,639,768.0999999996275,876]	3	1	0.872781819945791	0.127218180054208	20	1	7	1	0	0	0.745563639891583	1
307	0	[386.5,990.5]	3	0	0.148005494258642	0.851994505741357	14	1	8	1	0	0	0.703989011482715	1
307	1	[354.40000000037253]	3	1	0.878969854611094	0.121030145388905	9	1	9	1	0	0	0.757939709222189	1
307	0	[481.69999999925494]	3	0	0.124573589030042	0.875426410969957	19	0	10	1	0	0	0.750852821939915	1
307	0	[444,811.5]	3	0	0.111453917406343	0.888546082593656	20	1	11	1	0	0	0.777092165187313	1
307	0	[611.8000000007451]	3	0	0.0716097122452985	0.928390287754701	27	0	12	1	0	0	0.856780575509402	1
307	1	[580.2000000011176]	3	1	0.924625671889713	0.0753743281102861	30	0	13	1	0	0	0.849251343779427	1
307	1	[449.5,810.0999999996275]	3	1	0.913345374653505	0.0866546253464943	27	1	14	1	0	0	0.826690749307011	1
307	1	[454,1000]	3	1	0.878245071574581	0.121754928425418	39	0	15	1	0	0	0.756490143149163	1
307	1	[418.80000000074506]	3	1	0.926019265176591	0.0739807348234083	35	1	16	1	0	0	0.852038530353183	1
307	0	[523.1999999992549,668.5999999996275]	3	0	0.0808185072703495	0.91918149272965	32	1	17	1	0	0	0.8383629854593	1
307	0	[461.2000000011176]	3	0	0.0941712855089648	0.905828714491035	32	1	18	1	0	0	0.81165742898207	1
307	0	[416.7000000011176]	3	0	0.0835712243802868	0.916428775619713	28	1	19	1	0	0	0.832857551239426	1
307	0	[448.90000000037253,998.0999999996275]	3	0	0.130238853839623	0.869761146160376	26	0	20	1	0	0	0.739522292320753	1
307	1	[557.5999999996275]	3	1	0.912363040784495	0.0876369592155047	30	0	21	1	0	0	0.82472608156899	1
307	0	[441]	3	0	0.118450677299659	0.88154932270034	32	1	22	1	0	0	0.763098645400681	1
307	0	[668.5999999996275,824.6999999992549]	3	0	0.123148161725761	0.876851838274238	34	0	23	1	0	0	0.753703676548477	1
307	1	[514.1000000014901]	3	1	0.875779775787434	0.124220224212565	34	1	24	1	0	0	0.751559551574869	1
307	1	[478,667.5]	3	1	0.865998349445312	0.134001650554687	30	1	25	1	0	0	0.731996698890625	1
307	0	[763.1999999992549]	1	1	0.504311598289368	0.495688401710631	42	0	1	2	0	0	0.008623196578737	0
307	1	[646.1999999992549]	1	1	0.577923868081736	0.422076131918263	38	1	2	2	0	0	0.155847736163473	1
307	1	[570.0999999996275,997.4000000003725]	1	1	0.558058552110139	0.44194144788986	48	0	3	2	0	0	0.116117104220279	1
307	0	[643.9000000003725]	1	0	0.406381169126086	0.593618830873913	44	1	4	2	0	0	0.187237661747827	1
307	0	[472.7000000011176]	1	0	0.439795731058339	0.560204268941661	39	1	5	2	0	0	0.120408537883322	1
307	1	[523.4000000003725,788.9000000003725]	1	1	0.597459370493688	0.402540629506311	32	1	6	2	0	0	0.194918740987377	1
307	1	[705.5999999996275]	1	1	0.555346704329386	0.444653295670613	26	1	7	2	0	0	0.110693408658773	1
307	1	[504]	1	1	0.547834194392334	0.452165805607665	27	0	8	2	0	0	0.095668388784669	1
307	0	[549.4000000003725]	1	0	0.447791571058825	0.552208428941174	34	1	9	2	0	0	0.104416857882349	1
307	1	[721.3000000007451,919.6000000014901]	1	1	0.545130067488254	0.454869932511745	30	1	10	2	0	0	0.090260134976509	1
307	0	[624.6999999992549]	1	1	0.501783133170149	0.49821686682985	33	1	11	2	0	0	0.003566266340299	0
307	0	[535.5]	1	0	0.413958541519796	0.586041458480203	24	1	12	2	0	0	0.172082916960407	1
307	0	[892.1999999992549]	1	0	0.493554184228741	0.506445815771258	25	0	13	2	0	0	0.012891631542517	1
307	0	[489.90000000037253]	1	0	0.444167408246288	0.555832591753711	20	1	14	2	0	0	0.111665183507423	1
307	1	[568.9000000003725,852.0999999996275]	1	1	0.595888190487881	0.404111809512118	20	1	15	2	0	0	0.191776380975763	1
307	1	[548.4000000003725,974.7999999988824]	1	1	0.580759767202516	0.419240232797483	24	0	16	2	0	0	0.161519534405033	1
307	0	[443.8999999985099]	1	0	0.407689668629687	0.592310331370312	25	0	17	2	0	0	0.184620662740625	1
307	0	[678.3999999985099]	1	0	0.463308566762259	0.53669143323774	24	1	18	2	0	0	0.073382866475481	1
307	0	[466.90000000037253]	1	0	0.438180217892653	0.561819782107346	19	1	19	2	0	0	0.123639564214693	1
307	1	[535.4000000003725]	1	1	0.574764758198871	0.425235241801128	18	1	20	2	0	0	0.149529516397743	1
307	0	[510.30000000074506]	1	0	0.410411283583256	0.589588716416743	18	1	21	2	0	0	0.179177432833487	1
307	0	[736.5]	1	0	0.447460077551257	0.552539922448742	25	0	22	2	0	0	0.105079844897485	1
307	0	[767.6999999992549]	1	0	0.485766574383801	0.514233425616198	21	1	23	2	0	0	0.028466851232397	1
307	1	[566.4000000003725]	1	1	0.544811008138562	0.455188991861437	16	1	24	2	0	0	0.089622016277125	1
307	0	[549]	1	0	0.468448746484212	0.531551253515787	20	0	25	2	0	0	0.0631025070315751	1
307	0	[599.6999999992549]	1	0	0.454962918991568	0.545037081008431	100	1	1	3	0	1	0.090074162016863	1
307	1	[906.1999999992549]	1	1	0.545775078700431	0.454224921299569	100	1	2	3	0	1	0.091550157400862	1
307	1	[600.5]	1	1	0.566382161547348	0.433617838452651	100	1	3	3	0	1	0.132764323094697	1
307	0	[482]	1	0	0.433432454303184	0.566567545696815	100	1	4	3	0	1	0.133135091393631	1
307	0	[820.2999999988824]	1	1	0.506773435193652	0.493226564806347	98	1	5	3	0	1	0.013546870387305	0
307	0	[471.59999999962747]	1	0	0.422169619612478	0.577830380387521	100	1	6	3	0	1	0.155660760775043	1
307	0	[473.80000000074506]	1	0	0.444677619439952	0.555322380560047	100	1	7	3	0	1	0.110644761120095	1
307	0	[878.7999999988824]	1	1	0.500366917738332	0.499633082261667	97	0	8	3	0	1	0.000733835476664946	0
307	1	[703]	1	1	0.535128774273173	0.464871225726826	97	1	9	3	0	1	0.070257548546347	1
307	1	[536.9000000003725]	1	1	0.56028172687213	0.439718273127869	88	0	10	3	0	1	0.120563453744261	1
307	1	[773.4000000003725]	1	1	0.523436236020745	0.476563763979254	89	1	11	3	0	1	0.046872472041491	1
307	0	[473.69999999925494]	1	0	0.45133646888546	0.548663531114539	81	0	12	3	0	1	0.0973270622290791	1
307	1	[664.7000000011176,806.4000000003725]	1	1	0.585257654024256	0.414742345975744	74	0	13	3	0	1	0.170515308048512	1
307	0	[455.69999999925494]	1	0	0.469863914509828	0.530136085490171	77	1	14	3	0	1	0.060272170980343	1
307	1	[529.6999999992549,758.1999999992549]	1	1	0.575347943999125	0.424652056000874	81	1	15	3	0	1	0.150695887998251	1
307	1	[643.3999999985099]	1	1	0.524999753281357	0.475000246718642	74	0	16	3	0	1	0.049999506562715	1
307	0	[650.3000000007451]	1	1	0.506526052192071	0.493473947807928	73	0	17	3	0	1	0.013052104384143	0
307	0	[487.6000000014901]	1	0	0.424349404178525	0.575650595821474	71	0	18	3	0	1	0.151301191642949	1
307	1	[585.6999999992549]	1	1	0.555643494454099	0.4443565055459	74	1	19	3	0	1	0.111286988908199	1
307	1	[485.80000000074506]	1	1	0.565892280290489	0.43410771970951	77	1	20	3	0	1	0.131784560580979	1
307	0	[501.90000000037253]	1	0	0.434130626242111	0.565869373757888	80	1	21	3	0	1	0.131738747515777	1
307	0	[453]	1	0	0.476691499149461	0.523308500850538	81	1	22	3	0	1	0.046617001701077	1
307	0	[491.40000000037253]	1	0	0.444187365569401	0.555812634430598	80	1	23	3	0	1	0.111625268861197	1
307	0	[872]	1	0	0.47249313652854	0.527506863471459	77	0	24	3	0	1	0.055013726942919	1
307	0	[443.69999999925494]	1	0	0.454038241639022	0.545961758360977	78	1	25	3	0	1	0.091923516721955	1
307	0	[550.5]	1	0	0.406738612077738	0.593261387922261	50	0	1	4	1	1	0.186522775844523	0
307	0	[502.09999999962747]	1	1	0.592311860316432	0.407688139683567	52	1	2	4	1	1	0.184623720632865	1
307	1	[651.6999999992549,800.8000000007451]	1	0	0.437918861024678	0.562081138975321	73	1	3	4	1	1	0.124162277950643	1
307	1	[979.6000000014901]	1	1	0.510086734060535	0.489913265939464	73	0	4	4	1	1	0.020173468121071	0
307	0	[459.7000000011176]	1	1	0.590186889382344	0.409813110617655	76	1	5	4	1	1	0.180373778764689	1
307	0	[566.4000000003725]	1	1	0.541878540256478	0.458121459743521	79	1	6	4	1	1	0.083757080512957	1
307	1	[494.80000000074506]	1	0	0.476717642400864	0.523282357599135	75	0	7	4	1	1	0.046564715198271	1
307	1	[637.2000000011176]	1	1	0.529340599677534	0.470659400322465	71	1	8	4	1	1	0.058681199355069	0
307	0	[423.40000000037253]	1	1	0.595633619822045	0.404366380177954	73	1	9	4	1	1	0.191267239644091	1
307	1	[555.9000000003725]	1	0	0.463157810195401	0.536842189804598	79	1	10	4	1	1	0.073684379609197	1
307	1	[410.30000000074506]	1	0	0.411794046093583	0.588205953906416	82	1	11	4	1	1	0.176411907812833	1
307	1	[650.7999999988824]	1	0	0.483582143969847	0.516417856030152	74	0	12	4	1	1	0.032835712060305	1
307	1	[670]	1	0	0.45055705656492	0.549442943435079	79	1	13	4	1	1	0.098885886870159	1
307	0	[832.4000000003725]	1	1	0.536795080204201	0.463204919795798	76	0	14	4	1	1	0.073590160408403	1
307	0	[427]	1	1	0.57209380156421	0.427906198435789	77	1	15	4	1	1	0.144187603128421	1
307	1	[868.5]	1	0	0.482423892139243	0.517576107860756	72	0	16	4	1	1	0.035152215721513	1
307	1	[412.2999999988824]	1	0	0.412025266386424	0.587974733613575	74	1	17	4	1	1	0.175949467227151	1
307	1	[450.69999999925494,877]	1	0	0.460074524023301	0.539925475976698	69	0	18	4	1	1	0.079850951953397	1
307	1	[488.40000000037253,752.6000000014901]	1	0	0.446449493706302	0.553550506293697	73	1	19	4	1	1	0.107101012587395	1
307	0	[626.9000000003725]	1	1	0.516998896219457	0.483001103780542	74	1	20	4	1	1	0.033997792438915	1
307	0	[809.5999999996275]	1	1	0.507576946077603	0.492423053922396	78	1	21	4	1	1	0.015153892155207	1
307	0	[881.7999999988824]	1	1	0.518349052504508	0.481650947495491	69	0	22	4	1	1	0.036698105009017	1
307	0	[576.5999999996275]	1	1	0.599057897927212	0.400942102072787	79	1	23	4	1	1	0.198115795854425	1
307	1	[582.9000000003725,973.0999999996275]	1	0	0.431831222869215	0.568168777130784	74	1	24	4	1	1	0.136337554261569	1
307	0	[604]	1	1	0.554572202608388	0.445427797391611	71	0	25	4	1	1	0.109144405216777	1
307	1	[922.5]	2	1	0.511754396900219	0.48824560309978	74	1	1	5	0	1	0.023508793800439	1
307	1	[490.90000000037253,940.7000000011176]	2	1	0.587760430318093	0.412239569681907	100	1	2	5	0	1	0.175520860636186	1
307	0	[489.2000000011176]	2	0	0.410150765220516	0.589849234779483	100	1	3	5	0	1	0.179698469558967	1
307	0	[599.4000000003725]	2	0	0.422191438153429	0.57780856184657	100	1	4	5	0	1	0.155617123693141	1
307	0	[476.40000000037253]	2	0	0.446182553052702	0.553817446947297	98	1	5	5	0	1	0.107634893894595	1
307	0	[555.8000000007451]	2	0	0.420139425875804	0.579860574124195	98	1	6	5	0	1	0.159721148248391	1
307	0	[834.7999999988824]	2	1	0.50064765532096	0.499352344679039	97	0	7	5	0	1	0.00129531064192101	0
307	1	[487.5]	2	1	0.579722940837701	0.420277059162298	98	1	8	5	0	1	0.159445881675403	1
307	1	[556.2999999988824]	2	1	0.58000962740847	0.419990372591529	100	1	9	5	0	1	0.160019254816941	1
307	0	[499.5,959.8000000007451]	2	0	0.44035051351097	0.559649486489029	100	1	10	5	0	1	0.119298972978059	1
307	1	[573.6000000014901,766.5]	2	1	0.588201287869888	0.411798712130111	100	1	11	5	0	1	0.176402575739777	1
307	1	[609.3999999985099]	2	1	0.592578177690995	0.407421822309004	100	1	12	5	0	1	0.185156355381991	1
307	0	[458.40000000037253]	2	0	0.408818544184171	0.591181455815828	100	1	13	5	0	1	0.182362911631657	1
307	0	[637.5]	2	0	0.431805117939241	0.568194882060758	100	1	14	5	0	1	0.136389764121517	1
307	0	[866.6999999992549]	2	0	0.484146935519349	0.51585306448065	100	1	15	5	0	1	0.031706128961301	1
307	0	[647.0999999996275]	2	0	0.442307435456244	0.557692564543755	100	1	16	5	0	1	0.115385129087511	1
307	0	[505.80000000074506]	2	0	0.459123100922197	0.540876899077802	99	1	17	5	0	1	0.081753798155605	1
307	1	[524.6999999992549]	2	1	0.588100255775029	0.41189974422497	100	1	18	5	0	1	0.176200511550059	1
307	1	[471.69999999925494,633.4000000003725,811.3000000007451,953]	2	1	0.550071033692605	0.449928966307395	100	1	19	5	0	1	0.10014206738521	1
307	1	[602.0999999996275]	2	1	0.537682369214642	0.462317630785357	100	1	20	5	0	1	0.075364738429285	1
307	1	[605.5]	2	1	0.557070272520817	0.442929727479182	100	1	21	5	0	1	0.114140545041635	1
307	1	[487.80000000074506,740.8000000007451]	2	1	0.539434516879803	0.460565483120196	100	1	22	5	0	1	0.078869033759607	1
307	0	[477.80000000074506]	2	0	0.472649083483671	0.527350916516328	100	1	23	5	0	1	0.054701833032657	1
307	0	[591.5999999996275,718.9000000003725]	2	0	0.416331541015805	0.583668458984194	100	1	24	5	0	1	0.167336917968389	1
307	1	[608.7000000011176]	2	1	0.586439677123172	0.413560322876827	100	0	25	5	0	1	0.172879354246345	1
307	0	[563.7999999988824]	1	0	0.438093649882576	0.561906350117423	50	0	1	6	1	0	0.123812700234847	0
307	0	[925.5999999996275]	1	0	0.498761725445725	0.501238274554275	24	0	2	6	1	0	0.00247654910855005	0
307	0	[859.4000000003725]	1	1	0.591424649551698	0.408575350448301	21	1	3	6	1	0	0.182849299103397	1
307	0	[541.5999999996275]	1	1	0.591556346264067	0.408443653735932	18	1	4	6	1	0	0.183112692528135	1
307	0	[481.40000000037253]	1	0	0.464730772044309	0.53526922795569	23	1	5	6	1	0	0.070538455911381	0
307	1	[445.19999999925494]	1	0	0.460296830947929	0.53970316905207	19	1	6	6	1	0	0.079406338104141	1
307	1	[583.7000000011176,802.2000000011176]	1	0	0.421054220668124	0.578945779331875	13	1	7	6	1	0	0.157891558663751	1
307	0	[544]	1	1	0.510152610683862	0.489847389316137	11	1	8	6	1	0	0.0203052213677249	1
307	0	[537]	1	1	0.579977268989414	0.420022731010585	20	0	9	6	1	0	0.159954537978829	1
307	0	[796.2999999988824]	1	1	0.585707704724492	0.414292295275507	20	1	10	6	1	0	0.171415409448985	1
307	1	[706.0999999996275]	1	0	0.469179292340025	0.530820707659974	NaN	0	11	6	1	0	0.061641415319949	1
307	1	[875.3000000007451]	1	0	0.466317078643904	0.533682921356095	20	1	12	6	1	0	0.067365842712191	1
307	1	[645.4000000003725]	1	0	0.428461555391598	0.571538444608401	24	0	13	6	1	0	0.143076889216803	1
307	0	[543]	1	1	0.557286244060096	0.442713755939903	27	0	14	6	1	0	0.114572488120193	1
307	0	[686.5999999996275]	1	0	0.477929891552005	0.522070108447994	30	0	15	6	1	0	0.044140216895989	0
307	1	[542.5]	1	0	0.453272627167402	0.546727372832598	39	0	16	6	1	0	0.093454745665196	1
307	0	[637.1000000014901,806.9000000003725]	1	1	0.566677962491425	0.433322037508574	38	1	17	6	1	0	0.133355924982851	1
307	0	[679.2999999988824]	1	0	0.494648275553128	0.505351724446871	38	0	18	6	1	0	0.010703448893743	0
307	0	[422.19999999925494]	1	1	0.585540706013393	0.414459293986606	36	1	19	6	1	0	0.171081412026787	1
307	1	[661.6999999992549]	1	0	0.478016542599603	0.521983457400396	33	1	20	6	1	0	0.043966914800793	1
307	0	[492.40000000037253]	1	1	0.583918175641075	0.416081824358924	28	1	21	6	1	0	0.167836351282151	1
307	0	[436.59999999962747,638.5]	1	1	0.562389618850255	0.437610381149744	32	0	22	6	1	0	0.124779237700511	1
307	0	[508.69999999925494]	1	1	0.52979197526136	0.470208024738639	28	1	23	6	1	0	0.059583950522721	1
307	0	[645]	1	1	0.542019220831946	0.457980779168054	39	0	24	6	1	0	0.084038441663892	1
307	0	[602.3999999985099]	1	1	0.596569132402118	0.403430867597881	32	0	25	6	1	0	0.193138264804237	1
307	0	[628.0999999996275]	2	1	0.542108391730631	0.457891608269368	18	1	1	7	1	0	0.084216783461263	1
307	0	[517.8000000007451]	2	1	0.592018289451895	0.407981710548104	16	1	2	7	1	0	0.184036578903791	1
307	1	[475.3999999985099]	2	0	0.434798918351712	0.565201081648287	26	1	3	7	1	0	0.130402163296575	1
307	1	[465.59999999962747]	2	0	0.438445875837249	0.56155412416275	26	1	4	7	1	0	0.123108248325501	1
307	0	[465.90000000037253,666.4000000003725]	2	1	0.584882186455488	0.415117813544511	24	1	5	7	1	0	0.169764372910977	1
307	0	[515.1999999992549]	2	1	0.541905007529021	0.458094992470978	23	1	6	7	1	0	0.083810015058043	1
307	0	[822]	2	0	0.47388790916553	0.526112090834469	20	0	7	7	1	0	0.052224181668939	0
307	0	[384.09999999962747]	2	1	0.577451110638461	0.422548889361538	17	1	8	7	1	0	0.154902221276923	1
307	1	[473.69999999925494,665.2999999988824,957.8999999985099]	2	0	0.444031751707718	0.555968248292281	17	1	9	7	1	0	0.111936496584563	1
307	1	[429.7000000011176,597.7000000011176]	2	0	0.447459111339489	0.55254088866051	19	1	10	7	1	0	0.105081777321021	1
307	1	[578.0999999996275]	2	0	0.437576954530233	0.562423045469767	15	1	11	7	1	0	0.124846090939534	1
307	1	[791.7999999988824]	2	0	0.492780231907247	0.507219768092752	13	1	12	7	1	0	0.014439536185505	1
307	0	[433.80000000074506]	2	1	0.577374640648921	0.422625359351078	14	1	13	7	1	0	0.154749281297843	1
307	0	[440.09999999962747,642.6999999992549,816.4000000003725]	2	1	0.577325486316908	0.422674513683091	9	1	14	7	1	0	0.154650972633817	1
307	0	[746.3000000007451]	2	1	0.542820172686805	0.457179827313194	13	1	15	7	1	0	0.085640345373611	1
307	0	[433.30000000074506]	2	1	0.544172165984918	0.455827834015081	10	1	16	7	1	0	0.088344331969837	1
307	0	[558.6999999992549,739.6999999992549]	2	1	0.569389899687911	0.430610100312088	8	1	17	7	1	0	0.138779799375823	1
307	1	[544.9000000003725]	2	0	0.476474917095228	0.523525082904771	6	1	18	7	1	0	0.047050165809543	1
307	0	[494.8999999985099]	2	1	0.531612290559962	0.468387709440037	8	1	19	7	1	0	0.063224581119925	1
307	0	[431.19999999925494]	2	1	0.55840146572632	0.441598534273679	7	1	20	7	1	0	0.116802931452641	1
307	0	[614.2999999988824]	2	0	0.491345073875544	0.508654926124455	8	0	21	7	1	0	0.017309852248911	0
307	0	[722.6999999992549]	2	0	0.483437915603273	0.516562084396726	13	0	22	7	1	0	0.033124168793453	0
307	1	[525.9000000003725]	2	0	0.460994680245369	0.53900531975463	10	1	23	7	1	0	0.078010639509261	1
307	1	[431.7999999988824]	2	0	0.431185066998649	0.568814933001351	10	1	24	7	1	0	0.137629866002702	1
307	0	[557.8000000007451]	2	1	0.503020511022605	0.496979488977394	9	1	25	7	1	0	0.00604102204521101	1
307	1	[560.6000000014901]	2	0	0.439579679486455	0.560420320513545	100	1	1	8	1	1	0.12084064102709	1
307	1	[559.4000000003725]	2	0	0.402564973870347	0.597435026129652	100	1	2	8	1	1	0.194870052259305	1
307	0	[453.90000000037253]	2	1	0.541149425999454	0.458850574000545	100	1	3	8	1	1	0.082298851998909	1
307	0	[981.4000000003725]	2	0	0.488228268087956	0.511771731912043	100	0	4	8	1	1	0.023543463824087	0
307	1	[511.59999999962747]	2	0	0.443439434829409	0.55656056517059	100	1	5	8	1	1	0.113121130341181	1
307	1	[419]	2	0	0.407925660658542	0.592074339341457	100	1	6	8	1	1	0.184148678682915	1
307	1	[478.80000000074506,851.3000000007451]	2	0	0.432127644552621	0.567872355447378	100	1	7	8	1	1	0.135744710894757	1
307	1	[456.30000000074506]	2	0	0.43177681077148	0.568223189228519	100	1	8	8	1	1	0.136446378457039	1
307	1	[512.5999999996275]	2	0	0.413107456402297	0.586892543597702	100	1	9	8	1	1	0.173785087195405	1
307	0	[618]	2	1	0.515243832385988	0.484756167614011	100	1	10	8	1	1	0.030487664771977	1
307	0	[406.59999999962747]	2	1	0.559243983828134	0.440756016171866	100	1	11	8	1	1	0.118487967656268	1
307	1	[436.5]	2	0	0.466225684860162	0.533774315139837	100	1	12	8	1	1	0.0675486302796749	1
307	0	[540.9000000003725]	2	1	0.534670655749929	0.46532934425007	100	1	13	8	1	1	0.069341311499859	1
307	0	[401.5]	2	1	0.584631802601572	0.415368197398427	100	1	14	8	1	1	0.169263605203145	1
307	0	[393.5,612.4000000003725]	2	1	0.592996459383702	0.407003540616297	100	1	15	8	1	1	0.185992918767405	1
307	1	[400.09999999962747]	2	0	0.431675689279749	0.56832431072025	100	1	16	8	1	1	0.136648621440501	1
307	0	[413.09999999962747]	2	1	0.584334282990651	0.415665717009348	100	1	17	8	1	1	0.168668565981303	1
307	1	[383]	2	0	0.428540513659327	0.571459486340672	100	1	18	8	1	1	0.142918972681345	1
307	0	[448.5]	2	1	0.53983867145325	0.460161328546749	100	1	19	8	1	1	0.079677342906501	1
307	0	[429.1000000014901]	2	1	0.576714300017836	0.423285699982163	100	1	20	8	1	1	0.153428600035673	1
307	1	[479.80000000074506]	2	0	0.428695558426701	0.571304441573298	100	1	21	8	1	1	0.142608883146597	1
307	0	[659.2000000011176]	2	1	0.517452521702848	0.482547478297151	99	1	22	8	1	1	0.0349050434056969	1
307	1	[413.19999999925494]	2	0	0.445406032441902	0.554593967558098	99	1	23	8	1	1	0.109187935116196	1
307	0	[618.9000000003725]	2	1	0.548715450062973	0.451284549937026	100	1	24	8	1	1	0.097430900125947	1
307	0	[812.9000000003725]	2	1	0.513365866743712	0.486634133256287	100	1	25	8	1	1	0.026731733487425	1
307	0	[415.5]	3	1	0.868982798749974	0.131017201250025	24	1	1	9	1	0	0.737965597499949	1
307	0	[436.7000000011176]	3	1	0.938761206527844	0.0612387934721556	19	1	2	9	1	0	0.877522413055688	1
307	1	[417.2999999988824]	3	0	0.0979592640602098	0.90204073593979	3	1	3	9	1	0	0.80408147187958	1
307	0	[479.7999999988824]	3	0	0.113206734890167	0.886793265109832	2	0	4	9	1	0	0.773586530219665	0
307	0	[367.30000000074506]	3	1	0.932106459570167	0.0678935404298324	1	1	5	9	1	0	0.864212919140335	1
307	0	[528.7999999988824]	3	0	0.0703620586482679	0.929637941351732	10	1	6	9	1	0	0.859275882703464	0
307	1	[385.90000000037253]	3	0	0.0825860108006643	0.917413989199335	9	1	7	9	1	0	0.834827978398671	1
307	1	[576.5999999996275]	3	0	0.0743950766148081	0.925604923385192	4	1	8	9	1	0	0.851209846770384	1
307	0	[402.69999999925494]	3	1	0.875143494330065	0.124856505669934	4	1	9	9	1	0	0.750286988660131	1
307	1	[535]	3	0	0.0599772739993675	0.940022726000632	8	0	10	9	1	0	0.880045452001264	1
307	0	[575.2000000011176]	3	1	0.851784460119578	0.148215539880421	15	0	11	9	1	0	0.703568920239157	1
307	0	[376.40000000037253]	3	1	0.935844752511362	0.0641552474886371	16	1	12	9	1	0	0.871689505022725	1
307	0	[426.2000000011176]	3	1	0.870204531257891	0.129795468742108	25	0	13	9	1	0	0.740409062515783	1
307	1	[376.59999999962747]	3	0	0.120006041010008	0.879993958989991	23	1	14	9	1	0	0.759987917979983	1
307	0	[725.3000000007451]	3	1	0.930410317207839	0.0695896827921603	20	1	15	9	1	0	0.860820634415679	1
307	0	[394.8999999985099]	3	1	0.865454058040879	0.13454594195912	19	1	16	9	1	0	0.730908116081759	1
307	1	[595.0999999996275]	3	0	0.107850640933389	0.89214935906661	21	0	17	9	1	0	0.784298718133221	1
307	0	[399.59999999962747]	3	1	0.901783683478365	0.098216316521635	18	1	18	9	1	0	0.80356736695673	1
307	0	[383.5]	3	1	0.927825627834647	0.0721743721653529	23	0	19	9	1	0	0.855651255669294	1
307	1	[389]	3	0	0.0896874207163964	0.910312579283603	24	1	20	9	1	0	0.820625158567207	1
307	1	[352.40000000037253]	3	0	0.127559761897919	0.87244023810208	28	0	21	9	1	0	0.744880476204161	1
307	1	[414.69999999925494]	3	0	0.125992421881194	0.874007578118805	27	1	22	9	1	0	0.748015156237611	1
307	1	[406.5]	3	0	0.111199362234841	0.888800637765158	23	1	23	9	1	0	0.777601275530317	1
307	0	[412.6000000014901]	3	1	0.863168472032657	0.136831527967342	23	1	24	9	1	0	0.726336944065315	1
307	0	[419.90000000037253]	3	0	0.144307986481086	0.855692013518913	22	0	25	9	1	0	0.711384027037827	0
307	1	[493.59999999962747]	3	0	0.131706735588261	0.868293264411738	50	1	1	10	1	1	0.736586528823477	1
307	0	[376.30000000074506]	3	1	0.863869777781907	0.136130222218093	85	1	2	10	1	1	0.727739555563814	1
307	0	[471.2999999988824]	3	1	0.943748201305477	0.056251798694522	96	1	3	10	1	1	0.887496402610955	1
307	1	[556.5999999996275]	3	0	0.102341631497547	0.897658368502452	99	1	4	10	1	1	0.795316737004905	1
307	1	[389.40000000037253]	3	0	0.0863397266264441	0.913660273373555	87	0	5	10	1	1	0.827320546747111	1
307	1	[365.59999999962747]	3	0	0.0523788913586806	0.947621108641319	89	1	6	10	1	1	0.895242217282638	1
307	0	[488.2999999988824]	3	1	0.86678129964957	0.133218700350429	93	1	7	10	1	1	0.733562599299141	1
307	0	[415.80000000074506]	3	1	0.888117579252576	0.111882420747423	91	1	8	10	1	1	0.776235158505153	1
307	0	[393.2999999988824]	3	1	0.932840616975453	0.0671593830245463	86	0	9	10	1	1	0.865681233950907	1
307	0	[411.5]	3	1	0.868039388752504	0.131960611247495	81	1	10	10	1	1	0.736078777505009	1
307	1	[459.40000000037253]	3	0	0.0501814601147436	0.949818539885256	87	1	11	10	1	1	0.899637079770512	1
307	0	[425.90000000037253]	3	1	0.931363499074875	0.0686365009251246	84	0	12	10	1	1	0.86272699814975	1
307	0	[426.7000000011176]	3	1	0.947433855073656	0.0525661449263434	87	1	13	10	1	1	0.894867710147313	1
307	0	[433]	3	1	0.926844846346146	0.073155153653854	91	1	14	10	1	1	0.853689692692292	1
307	1	[488.09999999962747]	3	0	0.0743983985686862	0.925601601431313	86	0	15	10	1	1	0.851203202862627	1
307	0	[371.09999999962747]	3	1	0.858781086500321	0.141218913499678	90	1	16	10	1	1	0.717562173000643	1
307	1	[379.09999999962747]	3	0	0.0531034730372151	0.946896526962784	90	1	17	10	1	1	0.893793053925569	1
307	0	[395.69999999925494]	3	1	0.93661042210627	0.0633895778937295	83	0	18	10	1	1	0.873220844212541	1
307	0	[402.59999999962747]	3	1	0.907536295475884	0.0924637045241153	85	1	19	10	1	1	0.815072590951769	1
307	1	[457]	3	0	0.0537300858412598	0.94626991415874	82	0	20	10	1	1	0.89253982831748	1
307	1	[382.59999999962747]	3	0	0.05765696211532	0.94234303788468	81	1	21	10	1	1	0.88468607576936	1
307	1	[389]	3	0	0.115347595029991	0.884652404970008	74	0	22	10	1	1	0.769304809940017	1
307	0	[389]	3	1	0.90119226383566	0.0988077361643396	73	0	23	10	1	1	0.80238452767132	1
307	1	[380.90000000037253]	3	0	0.123931546184163	0.876068453815836	73	1	24	10	1	1	0.752136907631673	1
307	1	[426.5]	3	0	0.0530880835680895	0.94691191643191	76	1	25	10	1	1	0.89382383286382	1
307	0	[439.09999999962747]	3	1	0.858323195646435	0.141676804353564	50	0	1	11	0	1	0.716646391292871	0
307	1	[447.59999999962747]	3	0	0.125653484913035	0.874346515086964	66	0	2	11	0	1	0.748693030173929	0
307	1	[384.19999999925494]	3	1	0.902845410428263	0.0971545895717362	80	1	3	11	0	1	0.805690820856527	1
307	0	[399.5]	3	0	0.114166186873501	0.885833813126498	100	1	4	11	0	1	0.771667626252997	1
307	1	[431.7999999988824]	3	1	0.900649841252521	0.0993501587474785	92	0	5	11	0	1	0.801299682505042	1
307	1	[416.59999999962747]	3	1	0.863925159271456	0.136074840728543	91	1	6	11	0	1	0.727850318542913	1
307	1	[407.5]	3	1	0.891740569884012	0.108259430115987	90	1	7	11	0	1	0.783481139768025	1
307	0	[441.80000000074506]	3	0	0.109161423055551	0.890838576944448	93	1	8	11	0	1	0.781677153888897	1
307	1	[482.7000000011176,775]	3	1	0.905589507135757	0.0944104928642421	91	0	9	11	0	1	0.811179014271515	1
307	0	[406.90000000037253]	3	0	0.133041027117898	0.866958972882101	92	1	10	11	0	1	0.733917945764203	1
307	0	[436.09999999962747]	3	0	0.143730398507965	0.856269601492034	78	0	11	11	0	1	0.712539202984069	1
307	1	[540.2000000011176]	3	1	0.876027518221163	0.123972481778836	87	1	12	11	0	1	0.752055036442327	1
307	0	[718.5]	3	0	0.123257101646563	0.876742898353436	93	1	13	11	0	1	0.753485796706873	1
307	0	[410.5]	3	0	0.105915778411901	0.894084221588098	87	0	14	11	0	1	0.788168443176197	1
307	0	[502.59999999962747]	3	0	0.0862631011973067	0.913736898802693	90	1	15	11	0	1	0.827473797605386	1
307	0	[464.90000000037253]	3	0	0.0520843844235006	0.947915615576499	85	1	16	11	0	1	0.895831231152998	1
307	0	[368.59999999962747]	3	0	0.0973145738541234	0.902685426145876	91	1	17	11	0	1	0.805370852291753	1
307	1	[446.40000000037253]	3	1	0.871555284193953	0.128444715806046	83	0	18	11	0	1	0.743110568387907	1
307	0	[375.40000000037253]	3	0	0.135575456410322	0.864424543589677	77	0	19	11	0	1	0.728849087179355	1
307	1	[466.09999999962747]	3	1	0.925808908705691	0.0741910912943085	79	1	20	11	0	1	0.851617817411383	1
307	1	[392.30000000074506]	3	1	0.920827146448175	0.0791728535518241	74	0	21	11	0	1	0.841654292896351	1
307	1	[571.9000000003725]	3	1	0.942764015227032	0.0572359847729673	74	1	22	11	0	1	0.885528030454065	1
307	0	[454]	3	1	0.912945639763476	0.0870543602365233	75	0	23	11	0	1	0.825891279526953	0
307	1	[412.5]	3	0	0.143329163021152	0.856670836978847	76	0	24	11	0	1	0.713341673957695	0
307	0	[414.7000000011176]	3	1	0.929851883819289	0.0701481161807106	80	0	25	11	0	1	0.859703767638578	0
307	0	[551.7999999988824]	2	0	0.402007521434628	0.597992478565371	50	1	1	12	0	0	0.195984957130743	1
307	0	[585.5999999996275]	2	0	0.493334082907925	0.506665917092074	87	1	2	12	0	0	0.013331834184149	1
307	0	[630]	2	1	0.538984972611352	0.461015027388647	37	0	3	12	0	0	0.077969945222705	0
307	0	[523.3000000007451]	2	0	0.429891440349408	0.570108559650591	22	1	4	12	0	0	0.140217119301183	1
307	0	[439.30000000074506]	2	0	0.4195225610723	0.580477438927699	11	1	5	12	0	0	0.160954877855399	1
307	0	[536.1999999992549]	2	0	0.446094024716871	0.553905975283128	15	1	6	12	0	0	0.107811950566257	1
307	0	[485.19999999925494]	2	0	0.414642350493205	0.585357649506794	15	1	7	12	0	0	0.170715299013589	1
307	0	[604.4000000003725]	2	0	0.432068467205022	0.567931532794977	3	1	8	12	0	0	0.135863065589955	1
307	1	[644.1999999992549]	2	1	0.561833440195088	0.438166559804912	1	1	9	12	0	0	0.123666880390176	1
307	1	[547]	2	1	0.552620962769747	0.447379037230252	1	1	10	12	0	0	0.105241925539495	1
307	0	[581.5]	2	0	0.455627877572033	0.544372122427967	0	1	11	12	0	0	0.088744244855934	1
307	1	[581.2000000011176]	2	1	0.542973439715378	0.457026560284621	0	1	12	12	0	0	0.085946879430757	1
307	1	[600.5]	2	1	0.548991067568183	0.451008932431816	0	1	13	12	0	0	0.0979821351363671	1
307	0	[585.5]	2	0	0.478564916285108	0.521435083714891	0	1	14	12	0	0	0.042870167429783	1
307	1	[566.5999999996275]	2	1	0.560596539797975	0.439403460202025	0	1	15	12	0	0	0.12119307959595	1
307	1	[473.2999999988824]	2	1	0.597298093656297	0.402701906343702	0	1	16	12	0	0	0.194596187312595	1
307	1	[816.3000000007451]	2	1	0.515373066320738	0.484626933679261	0	1	17	12	0	0	0.030746132641477	1
307	1	[656.1999999992549]	2	1	0.516040217474768	0.483959782525231	0	1	18	12	0	0	0.0320804349495371	1
307	0	[467.2999999988824]	2	0	0.426236156252138	0.573763843747861	0	1	19	12	0	0	0.147527687495723	1
307	1	[491.2000000011176]	2	1	0.556121240815552	0.443878759184447	0	1	20	12	0	0	0.112242481631105	1
307	1	[488.2999999988824]	2	1	0.539246268988373	0.460753731011626	0	1	21	12	0	0	0.078492537976747	1
307	1	[628.5999999996275]	2	1	0.501058112522689	0.49894188747731	0	1	22	12	0	0	0.00211622504537895	1
307	0	[516.8999999985099]	2	0	0.426631881430573	0.573368118569426	0	1	23	12	0	0	0.146736237138853	1
307	1	[510.09999999962747]	2	1	0.541261031442444	0.458738968557555	0	1	24	12	0	0	0.0825220628848889	1
307	0	[562.5999999996275]	2	0	0.444231001879689	0.55576899812031	0	1	25	12	0	0	0.111537996240621	1
