ID	choice	rt	condition_int	state	contrast_left	contrast_right	reward	trials	blocks	contrast	ecoperf
21	0	805.534999992232	2	1	0.569980342697867	0.430019657302133	0	1	1	0	0
21	0	575.049999984912	2	0	0.447929895033919	0.55207010496608	1	2	1	0	1
21	0	589.849999989382	2	0	0.477808029403187	0.522191970596812	1	3	1	0	1
21	1	659.73999997368	2	1	0.55221852542735	0.447781474572649	0	4	1	0	1
21	0	684.094999975059	2	0	0.493203715892346	0.506796284107653	1	5	1	0	1
21	0	569.459999969694	2	0	0.484029851024455	0.515970148975544	1	6	1	0	1
21	0	496.425000019371	2	0	0.489964132058624	0.510035867941375	1	7	1	0	1
21	0	843.460000003688	2	0	0.465156350267316	0.534843649732683	1	8	1	0	1
21	1	943.865000037476	2	1	0.55421753772035	0.445782462279649	0	9	1	0	1
21	0	433.915000001434	2	0	0.471438299171465	0.528561700828534	1	10	1	0	1
21	0	458.060000033583	2	1	0.530681928835678	0.469318071164321	0	11	1	0	0
21	0	520.03000001423	2	0	0.471623004806033	0.528376995193966	1	12	1	0	1
21	1	732.179999991785	2	1	0.545710719427066	0.454289280572933	0	13	1	0	1
21	0	558.309999993071	2	0	0.471445241716029	0.52855475828397	1	14	1	0	1
21	0	574.094999989029	2	0	0.475506234440167	0.524493765559832	1	15	1	0	1
21	0	524.060000025201	2	1	0.519203321056276	0.480796678943723	0	16	1	0	0
21	0	874.009999970439	2	1	0.554856835730474	0.445143164269525	0	17	1	0	0
21	0	633.049999945797	2	1	0.524981001505186	0.475018998494813	0	18	1	0	0
21	0	519.359999976586	2	0	0.455537772840205	0.544462227159794	1	19	1	0	1
21	0	526.864999963436	2	0	0.452903655432505	0.547096344567494	1	20	1	0	1
21	0	438.460000033956	2	0	0.44202153375564	0.557978466244359	1	21	1	0	1
21	0	451.984999992419	2	1	0.511837352557158	0.488162647442841	0	22	1	0	0
21	0	516.634999949019	2	1	0.512234738049975	0.487765261950024	0	23	1	0	0
21	0	525.735000032	2	1	0.507865420428098	0.492134579571902	0	24	1	0	0
21	0	812.524999957531	2	NaN	0.500859061267341	0.499140938732658	NaN	25	1	0	0
21	1	778.489999996963	2	1	0.57034372207074	0.429656277929259	0	1	2	1	0
21	1	474.609999975655	2	0	0.460451397644863	0.539548602355136	1	2	2	1	1
21	1	905.374999972991	2	0	0.497173295863352	0.502826704136647	1	3	2	1	1
21	0	985.404999984894	2	1	0.517622254486419	0.482377745513581	0	4	2	1	1
21	1	472.009999968577	2	0	0.431855296324906	0.568144703675093	1	5	2	1	1
21	1	484.175000048708	2	0	0.428569517392873	0.571430482607126	1	6	2	1	1
21	1	460.495000006631	2	0	0.481932468141449	0.51806753185855	1	7	2	1	1
21	1	508.135000010952	2	0	0.475176729478933	0.524823270521066	1	8	2	1	1
21	1	931.745000008959	2	1	0.539689388638127	0.460310611361872	0	9	2	1	0
21	1	490.240000013727	2	0	0.46449358232087	0.535506417679129	1	10	2	1	1
21	1	442.855000030249	2	1	0.519498746954713	0.480501253045286	0	11	2	1	0
21	1	576.040000014472	2	0	0.484114127054114	0.515885872945886	1	12	2	1	1
21	1	629.695000010542	2	1	0.503271178946717	0.496728821053282	0	13	2	1	0
21	1	526.215000019874	2	0	0.465406125413885	0.534593874586114	1	14	2	1	1
21	1	548.950000025797	2	0	0.47609203488651	0.523907965113489	1	15	2	1	1
21	1	501.549999986309	2	1	0.515392332801619	0.48460766719838	0	16	2	1	0
21	0	260.914999991655	2	1	0.520839307329179	0.47916069267082	0	17	2	1	1
21	1	330.514999979641	2	1	0.51468092311469	0.485319076885309	0	18	2	1	0
21	0	339.179999951738	2	0	0.450322323343303	0.549677676656696	1	19	2	1	0
21	1	167.179999989457	2	0	0.490830094119694	0.509169905880305	1	20	2	1	1
21	1	520.92999999877	2	0	0.49402252620562	0.505977473794379	1	21	2	1	1
21	0	601.254999986849	2	1	0.544922419666656	0.455077580333343	0	22	2	1	1
21	1	950.554999988526	2	1	0.505583071215463	0.494416928784536	0	23	2	1	0
21	1	476.729999994859	2	1	0.523087452351559	0.47691254764844	0	24	2	1	0
21	0	260.699999984353	2	NaN	0.539950837957435	0.460049162042564	NaN	25	2	1	1
21	0	788.784999982453	1	1	0.509736340309713	0.490263659690287	0	1	3	1	1
21	0	536.540000000968	1	0	0.486859851003757	0.513140148996242	1	2	3	1	0
21	0	541.16999998223	1	0	0.46484985609989	0.535150143900109	1	3	3	1	0
21	1	668.249999987892	1	1	0.507883970860306	0.492116029139693	0	4	3	1	0
21	0	443.854999961331	1	0	0.450398282705793	0.549601717294206	1	5	3	1	0
21	1	169.085000001359	1	0	0.439184086513623	0.560815913486376	1	6	3	1	1
21	0	763.215000042691	1	0	0.424132287906342	0.575867712093657	1	7	3	1	0
21	1	384.930000000167	1	1	0.569105102218713	0.430894897781286	0	8	3	1	0
21	0	501.645000011194	1	0	0.453924424520995	0.546075575479004	1	9	3	1	0
21	1	500.34000002779	1	1	0.558805199172551	0.441194800827448	0	10	3	1	0
21	0	524.825000029522	1	0	0.498960496636538	0.501039503363461	1	11	3	1	0
21	0	276.955000008456	1	1	0.546388624494561	0.453611375505438	0	12	3	1	1
21	0	409.434999979566	1	0	0.45234092770617	0.547659072293829	1	13	3	1	0
21	0	448.290000029373	1	0	0.486851378935516	0.513148621064483	1	14	3	1	0
21	1	509.080000047106	1	1	0.523358516401788	0.476641483598211	0	15	3	1	0
21	0	589.024999993853	1	1	0.559800040318169	0.44019995968183	0	16	3	1	1
21	0	523.155000002589	1	1	0.519611046605328	0.480388953394671	0	17	3	1	1
21	1	305.725000042002	1	0	0.48168726224381	0.518312737756189	1	18	3	1	1
21	0	275.410000002011	1	0	0.442814843157391	0.557185156842608	1	19	3	1	0
21	1	286.019999999552	1	1	0.573817371141727	0.426182628858272	0	20	3	1	0
21	0	388.924999977462	1	0	0.447965679030741	0.552034320969258	1	21	3	1	0
21	0	372.325000003911	1	1	0.528442725476101	0.471557274523898	0	22	3	1	1
21	0	602.639999997336	1	1	0.532312711668155	0.467687288331844	0	23	3	1	1
21	1	606.865000037942	1	1	0.541871258974736	0.458128741025263	0	24	3	1	0
21	0	343.759999959729	1	NaN	0.498284231672223	0.501715768327776	NaN	25	3	1	1
21	1	339.625000022351	4	0	0.182976134736457	0.817023865263542	1	1	4	1	1
21	1	433.814999996684	4	0	0.132174224687524	0.867825775312475	1	2	4	1	1
21	0	403.504999994765	4	1	0.87487020495912	0.125129795040879	0	3	4	1	1
21	1	457.445000007282	4	0	0.156653020239164	0.843346979760836	1	4	4	1	1
21	1	373.924999963492	4	0	0.196437343890829	0.803562656109171	1	5	4	1	1
21	1	357.130000018514	4	0	0.186052716469492	0.813947283530507	1	6	4	1	1
21	1	381.035000027623	4	0	0.160950228154745	0.839049771845254	1	7	4	1	1
21	0	347.884999995585	4	1	0.811509451437839	0.18849054856216	0	8	4	1	1
21	1	295.074999972712	4	0	0.120197435896703	0.879802564103296	1	9	4	1	1
21	0	374.764999956823	4	1	0.84661171620209	0.153388283797909	0	10	4	1	1
21	1	316.504999995231	4	0	0.171571208855387	0.828428791144612	1	11	4	1	1
21	0	341.134999995119	4	1	0.803591844861091	0.196408155138908	0	12	4	1	1
21	1	361.525000014808	4	0	0.195698693851788	0.804301306148211	1	13	4	1	1
21	1	464.545000053476	4	0	0.132371586517638	0.867628413482361	1	14	4	1	1
21	0	337.630000023636	4	1	0.87322304963988	0.12677695036012	0	15	4	1	1
21	1	413.144999998621	4	1	0.81665253611503	0.183347463884969	0	16	4	1	0
21	0	379.584999987855	4	1	0.8428748544368	0.157125145563199	0	17	4	1	1
21	1	313.254999986384	4	0	0.138469434059317	0.861530565940682	1	18	4	1	1
21	1	359.64000003878	4	0	0.126705957925424	0.873294042074575	1	19	4	1	1
21	0	352.364999998826	4	1	0.820506386158731	0.179493613841268	0	20	4	1	1
21	1	286.969999957364	4	0	0.14964608230474	0.850353917695259	1	21	4	1	1
21	0	336.614999978337	4	1	0.814284145346225	0.185715854653774	0	22	4	1	1
21	0	430.200000002514	4	1	0.812573293273992	0.187426706726007	0	23	4	1	1
21	0	307.815000007394	4	1	0.810249883132809	0.18975011686719	0	24	4	1	1
21	0	369.765000010374	4	NaN	0.806552962898587	0.193447037101412	NaN	25	4	1	1
21	0	389.604999974835	3	1	0.806364832992936	0.193635167007064	0	1	5	1	1
21	1	314.050000044517	3	0	0.163153340761425	0.836846659238574	1	2	5	1	1
21	1	359.929999976884	3	0	0.159919737650683	0.840080262349316	1	3	5	1	1
21	0	328.090000024531	3	1	0.871447706857073	0.128552293142927	0	4	5	1	1
21	1	334.774999995715	3	0	0.188476555347512	0.811523444652487	1	5	5	1	1
21	1	324.179999995976	3	0	0.143046288117995	0.856953711882004	1	6	5	1	1
21	1	327.965000004041	3	0	0.139232947199426	0.860767052800573	1	7	5	1	1
21	1	366.819999995641	3	0	0.179556596675081	0.820443403324918	1	8	5	1	1
21	0	365.864999999757	3	1	0.823344953420317	0.176655046579682	0	9	5	1	1
21	0	358.080000034533	3	0	0.19636506082473	0.803634939175269	1	10	5	1	0
21	1	385.239999974146	3	1	0.878011267456589	0.12198873254341	0	11	5	1	0
21	0	177.644999988842	3	0	0.160997825220399	0.8390021747796	1	12	5	1	0
21	0	393.579999974463	3	1	0.836830807301493	0.163169192698506	0	13	5	1	1
21	0	582.330000004731	3	0	0.17855443290276	0.821445567097239	1	14	5	1	0
21	1	282.460000016726	3	0	0.178278784341179	0.82172121565882	1	15	5	1	1
21	0	943.290000024717	3	1	0.845851979986147	0.154148020013852	0	16	5	1	1
21	1	284.075000032316	3	1	0.84227520642857	0.157724793571429	0	17	5	1	0
21	0	363.439999986439	3	1	0.846180377238318	0.153819622761681	0	18	5	1	1
21	1	281.605000025592	3	0	0.131109792852658	0.868890207147341	1	19	5	1	1
21	0	469.324999954551	3	0	0.140355729513232	0.859644270486768	1	20	5	1	0
21	1	440.270000020973	3	1	0.846555184957758	0.153444815042241	0	21	5	1	0
21	0	292.739999946206	3	0	0.166699125793374	0.833300874206625	1	22	5	1	0
21	0	283.464999985881	3	1	0.876692981310051	0.123307018689948	0	23	5	1	1
21	1	270.420000015292	3	1	0.802955736273494	0.197044263726506	0	24	5	1	0
21	0	470.61499999836	3	1	0.813030756327353	0.186969243672646	0	25	5	1	1
21	0	405.670000007376	3	1	0.848831145633878	0.151168854366121	0	1	6	0	0
21	0	404.575000051409	3	0	0.197547991791466	0.802452008208533	1	2	6	0	1
21	1	385.790000029373	3	0	0.130342133249704	0.869657866750296	1	3	6	0	0
21	1	381.144999992102	3	1	0.869439344668615	0.130560655331384	0	4	6	0	1
21	0	365.014999988488	3	0	0.149877935673656	0.850122064326343	1	5	6	0	1
21	0	298.139999969862	3	0	0.124981761365786	0.875018238634213	1	6	6	0	1
21	1	272.289999993518	3	0	0.167039747840886	0.832960252159113	1	7	6	0	0
21	0	392.644999956246	3	0	0.123784662091029	0.87621533790897	1	8	6	0	1
21	1	310.819999955128	3	1	0.803673072507684	0.196326927492315	0	9	6	0	1
21	0	311.449999979231	3	0	0.134699775309793	0.865300224690206	1	10	6	0	1
21	0	293.760000029578	3	1	0.846123158608525	0.153876841391474	0	11	6	0	0
21	1	370.270000013988	3	0	0.187984861326325	0.812015138673674	1	12	6	0	0
21	0	268.129999982193	3	1	0.865142236738687	0.134857763261312	0	13	6	0	0
21	0	242.044999962672	3	0	0.128952780566131	0.871047219433868	1	14	6	0	1
21	1	288.29500003485	3	0	0.183476305298567	0.816523694701432	1	15	6	0	0
21	0	433.550000016111	3	1	0.861525183444729	0.13847481655527	0	16	6	0	0
21	1	287.620000017341	3	1	0.859813010118734	0.140186989881266	0	17	6	0	1
21	0	311.760000011418	3	1	0.87955513496244	0.120444865037559	0	18	6	0	0
21	0	306.184999994002	3	0	0.146326104022332	0.853673895977667	1	19	6	0	1
21	1	389.044999959878	3	0	0.18148546630247	0.818514533697529	1	20	6	0	0
21	1	410.119999956805	3	1	0.859046661110762	0.140953338889237	0	21	6	0	1
21	1	314.030000008642	3	0	0.132879145779483	0.867120854220517	1	22	6	0	0
21	0	44.4099999731406	3	1	0.817778889429993	0.182221110570006	0	23	6	0	0
21	1	566.985000041313	3	1	0.852473809354767	0.147526190645232	0	24	6	0	1
21	0	568.304999964311	3	1	0.833238277037521	0.166761722962478	0	25	6	0	0
21	1	379.049999988637	4	1	0.858145422624454	0.141854577375545	0	1	7	0	1
21	0	263.979999988805	4	0	0.137872208710314	0.862127791289685	1	2	7	0	1
21	1	358.225000032689	4	0	0.123129630429299	0.8768703695707	1	3	7	0	0
21	0	326.195000030566	4	1	0.873965138178759	0.12603486182124	0	4	7	0	0
21	0	385.01000002725	4	0	0.161864236714997	0.838135763285002	1	5	7	0	1
21	1	255.629999970551	4	0	0.190765462339072	0.809234537660928	1	6	7	0	0
21	0	376.734999998006	4	0	0.189596831545016	0.810403168454983	1	7	7	0	1
21	1	275.039999978616	4	0	0.157100594434664	0.842899405565335	1	8	7	0	0
21	0	240.705000003799	4	1	0.876743816047916	0.123256183952083	0	9	7	0	0
21	1	301.135000016074	4	0	0.174582692888527	0.825417307111472	1	10	7	0	0
21	0	277.694999997038	4	1	0.83089061952765	0.169109380472349	0	11	7	0	0
21	0	278.479999979026	4	0	0.120310447683666	0.879689552316333	1	12	7	0	1
21	1	329.980000038631	4	1	0.839423972221542	0.160576027778457	0	13	7	0	1
21	0	331.109999970067	4	0	0.19300740805598	0.806992591944019	1	14	7	0	1
21	1	280.514999991282	4	0	0.130429436821753	0.869570563178246	1	15	7	0	0
21	1	285.4899999802	4	1	0.81800976698776	0.181990233012239	0	16	7	0	1
21	1	458.675000001676	4	1	0.808429842070893	0.191570157929106	0	17	7	0	1
21	1	365.684999967925	4	1	0.855504375203325	0.144495624796674	0	18	7	0	1
21	0	427.560000040102	4	0	0.139840026650374	0.860159973349625	1	19	7	0	1
21	0	412.215000018477	4	0	0.134692951511522	0.865307048488477	1	20	7	0	1
21	1	419.709999987389	4	1	0.807034960053209	0.19296503994679	0	21	7	0	1
21	0	370.28500001179	4	0	0.152695658845937	0.847304341154062	1	22	7	0	1
21	1	398.785000026691	4	1	0.809403318174345	0.190596681825655	0	23	7	0	1
21	1	405.504999973345	4	1	0.810880196854459	0.18911980314554	0	24	7	0	1
21	1	363.425000046845	4	1	0.864577655284684	0.135422344715315	0	25	7	0	1
21	0	440.789999964181	2	1	0.563652059132109	0.43634794086789	0	1	8	0	0
21	0	92.4450000165961	2	0	0.427015248070693	0.572984751929306	1	2	8	0	1
21	0	330.094999982975	2	0	0.462821257891247	0.537178742108752	1	3	8	0	1
21	1	567.949999996926	2	1	0.554440175937618	0.445559824062382	0	4	8	0	1
21	1	454.359999974258	2	0	0.440049938228141	0.559950061771858	1	5	8	0	0
21	1	567.150000017136	2	0	0.465868658902237	0.534131341097763	1	6	8	0	0
21	0	296.149999951012	2	0	0.43210832552289	0.567891674477109	1	7	8	0	1
21	1	472.559999965596	2	0	0.450702627535131	0.549297372464868	1	8	8	0	0
21	0	423.689999966882	2	1	0.554804610456263	0.445195389543736	0	9	8	0	0
21	0	645.574999973177	2	0	0.499050094544332	0.500949905455667	1	10	8	0	1
21	1	562.039999989792	2	1	0.533286497338902	0.466713502661098	0	11	8	0	1
21	1	327.860000019427	2	0	0.497657169660243	0.502342830339756	1	12	8	0	0
21	1	294.074999983422	2	1	0.562725471062067	0.437274528937932	0	13	8	0	1
21	0	310.080000024754	2	0	0.493861445053939	0.50613855494606	1	14	8	0	1
21	1	259.380000003147	2	0	0.478587967142329	0.52141203285767	1	15	8	0	0
21	0	123.024999978952	2	1	0.50884924215984	0.491150757840159	0	16	8	0	0
21	0	78.0200000153854	2	1	0.571664707752919	0.42833529224708	0	17	8	0	0
21	1	95.5550000071525	2	1	0.563819114760565	0.436180885239434	0	18	8	0	1
21	0	95.5399999511428	2	0	0.481969050733348	0.518030949266651	1	19	8	0	1
21	1	87.9700000514276	2	0	0.498998285371291	0.501001714628708	1	20	8	0	0
21	0	80.0900000031106	2	1	0.55906116800457	0.440938831995429	0	21	8	0	0
21	1	24.3699999991804	2	0	0.444022379402676	0.555977620597323	1	22	8	0	0
21	0	51.5500000328756	2	1	0.555948097823582	0.444051902176417	0	23	8	0	0
21	0	183.254999981727	2	1	0.534997420913141	0.465002579086858	0	24	8	0	0
21	0	115.705000003799	2	1	0.56205308058834	0.437946919411659	0	25	8	0	0
21	0	596.465000009629	2	1	0.571386549957611	0.428613450042389	0	1	9	0	0
21	0	355.535000038798	2	0	0.458193238704958	0.541806761295041	1	2	9	0	1
21	0	529.539999959524	2	0	0.456734084331689	0.54326591566831	1	3	9	0	1
21	1	470.690000045578	2	1	0.557375056450662	0.442624943549337	0	4	9	0	1
21	0	534.329999994952	2	0	0.483964148116377	0.516035851883622	1	5	9	0	1
21	0	399.109999998472	2	0	0.455553608348629	0.54444639165137	1	6	9	0	1
21	0	405.245000030845	2	0	0.439206519131448	0.560793480868551	1	7	9	0	1
21	0	385.995000018738	2	0	0.475101985815537	0.524898014184462	1	8	9	0	1
21	0	408.980000007431	2	1	0.520755365464864	0.479244634535135	0	9	9	0	0
21	0	441.025000007357	2	0	0.43155161704143	0.568448382958569	1	10	9	0	1
21	0	376.8900000141	2	1	0.545211505524447	0.454788494475552	0	11	9	0	0
21	0	408.335000043734	2	0	0.46869135080225	0.531308649197749	1	12	9	0	1
21	0	478.665000002365	2	1	0.54226846263291	0.457731537367089	0	13	9	0	0
21	0	411.919999984093	2	0	0.431666805514957	0.568333194485042	1	14	9	0	1
21	0	369.104999990668	2	0	0.47179503469394	0.528204965306059	1	15	9	0	1
21	0	884.989999991376	2	1	0.574853052475493	0.425146947524506	0	16	9	0	0
21	0	180.944999970961	2	1	0.560579638923965	0.439420361076034	0	17	9	0	0
21	0	308.024999976623	2	1	0.561200494078538	0.438799505921461	0	18	9	0	0
21	0	411.184999975375	2	0	0.443285878023369	0.55671412197663	1	19	9	0	1
21	0	410.065000003669	2	0	0.475081140737533	0.524918859262466	1	20	9	0	1
21	1	334.900000016205	2	1	0.512298287064048	0.487701712935951	0	21	9	0	1
21	0	382.609999971464	2	0	0.496997608001767	0.503002391998232	1	22	9	0	1
21	0	525.450000015553	2	1	0.508300388294949	0.49169961170505	0	23	9	0	0
21	1	507.975000014994	2	1	0.508226480138334	0.491773519861665	0	24	9	0	1
21	0	443.819999985862	2	1	0.503963404165459	0.49603659583454	0	25	9	0	0
21	1	867.94500000542	2	1	0.508678074375628	0.491321925624372	0	1	10	1	0
21	1	308.055000030435	2	0	0.495734490349784	0.504265509650215	1	2	10	1	1
21	1	321.914999978616	2	0	0.444333797852003	0.555666202147996	1	3	10	1	1
21	0	981.765000033192	2	1	0.551626969378413	0.448373030621586	0	4	10	1	1
21	1	293.245000008028	2	0	0.480499450320456	0.519500549679543	1	5	10	1	1
21	0	460.680000018328	2	0	0.433643935286213	0.566356064713786	1	6	10	1	0
21	0	322.449999977834	2	0	0.499581900410295	0.500418099589704	1	7	10	1	0
21	0	305.074999982025	2	0	0.46668707133824	0.533312928661759	1	8	10	1	0
21	1	228.624999988824	2	1	0.562947279312819	0.43705272068718	0	9	10	1	0
21	0	282.375000009778	2	0	0.428961565518563	0.571038434481436	1	10	10	1	0
21	1	313.114999968092	2	1	0.556163658144955	0.443836341855044	0	11	10	1	0
21	0	282.659999968018	2	0	0.43694105718785	0.56305894281215	1	12	10	1	0
21	1	303.289999952539	2	1	0.560399305998584	0.439600694001415	0	13	10	1	0
21	0	390.284999972209	2	0	0.496077938229203	0.503922061770796	1	14	10	1	0
21	0	49.5649999938905	2	0	0.423596727613836	0.576403272386163	1	15	10	1	0
21	1	559.169999964069	2	1	0.51308289353452	0.486917106465479	0	16	10	1	0
21	1	542.995000025257	2	1	0.57492991259692	0.425070087403079	0	17	10	1	0
21	1	221.665000019129	2	1	0.548253263102727	0.451746736897272	0	18	10	1	0
21	1	220.955000026151	2	0	0.462846355315417	0.537153644684582	1	19	10	1	1
21	0	507.949999999254	2	0	0.449060376269755	0.550939623730245	1	20	10	1	0
21	0	699.094999989029	2	1	0.538154751658119	0.46184524834188	0	21	10	1	1
21	1	388.694999972358	2	0	0.451626284264829	0.54837371573517	1	22	10	1	1
21	0	383.650000032503	2	1	0.551485974636943	0.448514025363056	0	23	10	1	1
21	1	549.28999999538	2	1	0.529154811976323	0.470845188023677	0	24	10	1	0
21	0	430.654999974649	2	1	0.524082142882214	0.475917857117785	0	25	10	1	1
21	0	678.034999989904	1	1	0.539906401034797	0.460093598965202	0	1	11	1	1
21	1	402.920000022277	1	0	0.486728371647876	0.513271628352123	1	2	11	1	1
21	1	537.784999993164	1	0	0.478490572613607	0.521509427386392	1	3	11	1	1
21	0	785.944999952334	1	1	0.544548071627711	0.455451928372288	0	4	11	1	1
21	1	418.039999960456	1	0	0.436650905643879	0.56334909435612	1	5	11	1	1
21	1	433.669999998528	1	0	0.463113786660127	0.536886213339872	1	6	11	1	1
21	1	391.635000007227	1	0	0.424002777950655	0.575997222049344	1	7	11	1	1
21	1	350.214999984018	1	0	0.462922754749281	0.537077245250718	1	8	11	1	1
21	1	531.535000016447	1	1	0.529570474223023	0.470429525776976	0	9	11	1	0
21	1	578.495000023394	1	0	0.426504535828224	0.573495464171775	1	10	11	1	1
21	0	474.535000044852	1	1	0.555323629210705	0.444676370789294	0	11	11	1	1
21	1	360.71500001708	1	0	0.431255374024283	0.568744625975716	1	12	11	1	1
21	1	330.144999956246	1	1	0.502649627829616	0.497350372170383	0	13	11	1	0
21	1	418.100000009872	1	0	0.431346121139411	0.568653878860588	1	14	11	1	1
21	0	361.070000042673	1	0	0.483742512755256	0.516257487244743	1	15	11	1	0
21	0	512.144999986048	1	1	0.542747310679049	0.45725268932095	0	16	11	1	1
21	0	543.004999984987	1	1	0.563005614678454	0.436994385321545	0	17	11	1	1
21	1	281.925000017508	1	1	0.503228485994085	0.496771514005914	0	18	11	1	0
21	1	544.295000028796	1	1	0.502121858861615	0.497878141138384	0	19	11	1	0
21	1	473.579999990761	1	0	0.45794061940646	0.542059380593539	1	20	11	1	1
21	1	337.029999995138	1	1	0.513277095178842	0.486722904821157	0	21	11	1	0
21	0	942.739999969489	1	1	0.541256388093096	0.458743611906903	0	22	11	1	1
21	1	499.040000024251	1	NaN	0.436662673599873	0.563337326400126	NaN	23	11	1	1
21	1	69.290000014007	1	NaN	0.436411114168174	0.563588885831826	NaN	24	11	1	1
21	1	363.490000017918	1	NaN	0.571174023662491	0.428825976337508	NaN	25	11	1	1
21	0	459.22999997856	4	1	0.842920541115497	0.157079458884502	0	1	12	1	1
21	1	367.795000027399	4	0	0.174791038252537	0.825208961747462	1	2	12	1	1
21	1	374.630000034812	4	0	0.170337729718435	0.829662270281564	1	3	12	1	1
21	0	423.149999987799	4	1	0.812902242207488	0.187097757792511	0	4	12	1	1
21	1	365.489999996498	4	0	0.13912423809757	0.86087576190243	1	5	12	1	1
21	1	467.615000030491	4	0	0.164677787814738	0.835322212185261	1	6	12	1	1
21	1	447.824999981094	4	0	0.198264506225319	0.80173549377468	1	7	12	1	1
21	1	431.295000016689	4	0	0.139064448235422	0.860935551764577	1	8	12	1	1
21	0	441.839999984949	4	1	0.832670313714801	0.167329686285198	0	9	12	1	1
21	1	367.729999998118	4	0	0.13051432088707	0.869485679112929	1	10	12	1	1
21	0	360.145000042393	4	1	0.804100649513087	0.195899350486912	0	11	12	1	1
21	1	349.915000027976	4	0	0.188050479496733	0.811949520503266	1	12	12	1	1
21	0	414.764999994076	4	1	0.803919437838351	0.196080562161648	0	13	12	1	1
21	1	274.650000035762	4	0	0.156597706091781	0.843402293908218	1	14	12	1	1
21	1	384.659999981522	4	0	0.144838115830973	0.855161884169026	1	15	12	1	1
21	0	447.96000001952	4	1	0.824403385685423	0.175596614314576	0	16	12	1	1
21	0	519.614999997429	4	1	0.829158242796882	0.170841757203117	0	17	12	1	1
21	0	550.875000015366	4	1	0.829827826476514	0.170172173523485	0	18	12	1	1
21	1	652.310000034049	4	0	0.128387223218202	0.871612776781797	1	19	12	1	1
21	1	365.33000000054	4	0	0.193484932724803	0.806515067275196	1	20	12	1	1
21	0	334.059999964665	4	1	0.823489177035248	0.176510822964751	0	21	12	1	1
21	1	408.800000033807	4	0	0.166875764952927	0.833124235047072	1	22	12	1	1
21	0	386.125000019092	4	1	0.839859262078907	0.160140737921092	0	23	12	1	1
21	1	311.259999987669	4	1	0.840102993003981	0.159897006996018	0	24	12	1	0
21	0	496.19499995606	4	NaN	0.832108142211276	0.167891857788723	NaN	25	12	1	1
21	0	468.854999984614	3	1	0.814069126355166	0.185930873644833	0	1	13	1	1
21	1	394.919999991543	3	0	0.135584293475805	0.864415706524194	1	2	13	1	1
21	1	318.425000004936	3	0	0.126110630606718	0.873889369393281	1	3	13	1	1
21	0	302.774999989196	3	1	0.864356431351577	0.135643568648422	0	4	13	1	1
21	0	168.290000001434	3	0	0.123338355872778	0.876661644127221	1	5	13	1	0
21	1	548.149999987799	3	0	0.159133084297781	0.840866915702218	1	6	13	1	1
21	1	547.699999995529	3	0	0.189694830498365	0.810305169501634	1	7	13	1	1
21	0	825.955000007525	3	1	0.803710610042359	0.196289389957641	0	8	13	1	1
21	1	680.140000011306	3	0	0.191153461613172	0.808846538386827	1	9	13	1	1
21	0	806.26000004122	3	1	0.820808979681688	0.179191020318311	0	10	13	1	1
21	1	739.85499999253	3	0	0.133325334023984	0.866674665976015	1	11	13	1	1
21	0	971.990000049118	3	1	0.8674655699662	0.132534430033799	0	12	13	1	1
21	1	794.50000001816	3	0	0.131292322627998	0.868707677372001	1	13	13	1	1
21	0	467.815000039991	3	0	0.157012419912722	0.842987580087277	1	14	13	1	0
21	1	75.9800000232644	3	1	0.855667923705364	0.144332076294635	0	15	13	1	0
21	0	421.120000013615	3	1	0.865857220550227	0.134142779449773	0	16	13	1	1
21	0	476.009999983944	3	1	0.86943067307362	0.130569326926379	0	17	13	1	1
21	1	424.929999979212	3	0	0.196465167706466	0.803534832293533	1	18	13	1	1
21	1	376.410000026226	3	0	0.134068479821023	0.865931520178976	1	19	13	1	1
21	0	319.944999995641	3	1	0.836196400313764	0.163803599686235	0	20	13	1	1
21	1	325.010000029578	3	0	0.126465924172696	0.873534075827303	1	21	13	1	1
21	0	327.349999977741	3	1	0.860614439154813	0.139385560845186	0	22	13	1	1
21	0	413.64500002237	3	1	0.878282117315564	0.121717882684435	0	23	13	1	1
21	0	362.775000045076	3	1	0.814264679805247	0.185735320194752	0	24	13	1	1
21	1	520.260000019334	3	NaN	0.138525256113289	0.86147474388671	NaN	25	13	1	1
21	0	477.799999993294	3	1	0.833046433873658	0.166953566126341	0	1	14	0	0
21	1	966.75999998115	3	0	0.120099833171685	0.879900166828314	1	2	14	0	0
21	1	74.8400000156834	3	0	0.140572291919168	0.859427708080831	1	3	14	0	0
21	0	30.2349999547004	3	1	0.834397613391008	0.165602386608991	0	4	14	0	0
21	1	133.574999985285	3	0	0.184307402449028	0.815692597550971	1	5	14	0	0
21	1	42.9499999736435	3	0	0.190882465877895	0.809117534122104	1	6	14	0	0
21	1	391.330000013113	3	0	0.196742847954428	0.803257152045571	1	7	14	0	0
21	0	447.080000012647	3	0	0.120170880250316	0.879829119749683	1	8	14	0	1
21	1	389.330000034533	3	1	0.843260798434351	0.156739201565648	0	9	14	0	1
21	0	422.650000022258	3	0	0.13225359610553	0.867746403894469	1	10	14	0	1
21	1	763.659999996889	3	1	0.871820290406815	0.128179709593184	0	11	14	0	1
21	1	103.170000016689	3	0	0.190259314857105	0.809740685142894	1	12	14	0	0
21	0	18.930000020191	3	1	0.850155273879709	0.14984472612029	0	13	14	0	0
21	1	380.969999998342	3	0	0.148572321972614	0.851427678027385	1	14	14	0	0
21	0	481.48499999661	3	0	0.199455509383811	0.800544490616188	1	15	14	0	1
21	1	430.824999988544	3	1	0.866105389246711	0.133894610753288	0	16	14	0	1
21	0	142.85500004189	3	1	0.807200023932696	0.192799976067303	0	17	14	0	0
21	1	460.100000025704	3	1	0.803485887633293	0.196514112366706	0	18	14	0	1
21	0	556.734999991022	3	0	0.161404148054376	0.838595851945624	1	19	14	0	1
21	0	455.780000018421	3	0	0.194855960638326	0.805144039361673	1	20	14	0	1
21	1	117.819999984931	3	1	0.875658823025846	0.124341176974153	0	21	14	0	1
21	0	332.324999966658	3	0	0.157979015264693	0.842020984735306	1	22	14	0	1
21	1	361.809999973047	3	1	0.879998831317727	0.120001168682272	0	23	14	0	1
21	1	471.215000026859	3	1	0.85477481995486	0.145225180045139	0	24	14	0	1
21	1	413.149999978486	3	1	0.86425943006208	0.135740569937919	0	25	14	0	1
21	0	980.089999968186	4	1	0.803881658857745	0.196118341142254	0	1	15	0	0
21	1	424.159999995026	4	0	0.141691107922771	0.858308892077228	1	2	15	0	0
21	0	650.405000022146	4	0	0.174893330583904	0.825106669416095	1	3	15	0	1
21	1	457.300000009126	4	1	0.826594893926991	0.173405106073008	0	4	15	0	1
21	0	362.305000016931	4	0	0.158986230136932	0.841013769863067	1	5	15	0	1
21	0	359.939999994821	4	0	0.121604758984398	0.878395241015601	1	6	15	0	1
21	0	500.130000000353	4	0	0.190736652453242	0.809263347546757	1	7	15	0	1
21	0	371.214999991934	4	0	0.169749569605811	0.830250430394188	1	8	15	0	1
21	1	478.735000011511	4	1	0.840056218999614	0.159943781000385	0	9	15	0	1
21	0	361.230000038631	4	0	0.142333892301425	0.857666107698574	1	10	15	0	1
21	1	375.724999990779	4	1	0.860681953633781	0.139318046366218	0	11	15	0	1
21	0	352.364999998826	4	0	0.171404753966453	0.828595246033546	1	12	15	0	1
21	0	454.665000026579	4	1	0.867596118380151	0.132403881619848	0	13	15	0	0
21	0	442.335000028833	4	0	0.121044878937493	0.878955121062506	1	14	15	0	1
21	0	535.459999984595	4	0	0.162720683354117	0.837279316645882	1	15	15	0	1
21	1	500.14999997802	4	1	0.812398211222593	0.187601788777406	0	16	15	0	1
21	0	485.289999982342	4	1	0.819996982250234	0.180003017749765	0	17	15	0	0
21	1	438.560000038705	4	1	0.821859830529795	0.178140169470204	0	18	15	0	1
21	0	432.020000007469	4	0	0.146364099320972	0.853635900679027	1	19	15	0	1
21	0	470.82499996759	4	0	0.133916094197039	0.86608390580296	1	20	15	0	1
21	1	436.709999979939	4	1	0.877314935316854	0.122685064683145	0	21	15	0	1
21	0	484.939999994821	4	0	0.140535570172163	0.859464429827836	1	22	15	0	1
21	1	506.475000001955	4	1	0.815828347372602	0.184171652627397	0	23	15	0	1
21	1	450.139999971725	4	1	0.800079493050152	0.199920506949847	0	24	15	0	1
21	1	471.840000012889	4	1	0.850632091197529	0.14936790880247	0	25	15	0	1
21	1	469.609999970998	1	1	0.576081355258552	0.423918644741447	0	1	16	0	1
21	1	388.355000002775	1	0	0.44929534959825	0.550704650401749	1	2	16	0	0
21	0	413.585000031162	1	0	0.486782545875619	0.51321745412438	1	3	16	0	1
21	1	355.255000002216	1	1	0.516865899486336	0.483134100513663	0	4	16	0	1
21	1	314.045000006444	1	0	0.424454049395349	0.57554595060465	1	5	16	0	0
21	0	330.040000029839	1	0	0.459358084436164	0.540641915563835	1	6	16	0	1
21	0	376.705000002402	1	0	0.451435194877764	0.548564805122235	1	7	16	0	1
21	1	317.485000006854	1	0	0.499848269481179	0.50015173051882	1	8	16	0	0
21	1	298.175000003539	1	1	0.578348296941642	0.421651703058357	0	9	16	0	1
21	1	901.975000044331	1	0	0.482481382292513	0.517518617707486	1	10	16	0	0
21	1	597.43999998318	1	1	0.527538366481678	0.472461633518321	0	11	16	0	1
21	0	677.759999991394	1	0	0.469003229257785	0.530996770742215	1	12	16	0	1
21	1	507.885000028181	1	0	0.4896721277437	0.510327872256299	1	13	16	0	0
21	0	616.494999965652	1	1	0.519851279174046	0.480148720825953	0	14	16	0	0
21	1	607.474999967962	1	1	0.575071325946971	0.424928674053028	0	15	16	0	1
21	0	791.680000023916	1	1	0.505898350379983	0.494101649620016	0	16	16	0	0
21	1	278.244999994058	1	0	0.49008349428442	0.509916505715579	1	17	16	0	0
21	0	556.630000006407	1	0	0.46478984347663	0.535210156523369	1	18	16	0	1
21	0	884.160000015981	1	1	0.509413265624443	0.490586734375556	0	19	16	0	0
21	0	650.485000049229	1	0	0.4641851435661	0.535814856433899	1	20	16	0	1
21	0	528.254999953787	1	1	0.570370624707454	0.429629375292545	0	21	16	0	0
21	1	403.385000012349	1	1	0.523894005424461	0.476105994575538	0	22	16	0	1
21	1	482.699999993201	1	NaN	0.491860827235685	0.508139172764314	NaN	23	16	0	0
21	1	321.215000003576	1	NaN	0.524507067843615	0.475492932156384	NaN	24	16	0	0
21	0	340.970000019297	1	NaN	0.559208785818881	0.440791214181118	NaN	25	16	0	0
