ID	choice	rt	choice_cond	state	contrast_left	contrast_right	mu	correct	trials	blocks	contrast	congruence	con_diff_choice	ecoperf
164	1	[416]	3	0	0.123093023867479	0.87690697613252	100	0	1	1	0	1	0.753813952265041	0
164	1	[412.9000000357628]	3	1	0.854107558297373	0.145892441702626	97	1	2	1	0	1	0.708215116594747	1
164	1	[496.4000000357628,704]	3	0	0.0643238375528756	0.935676162447124	99	1	3	1	0	1	0.871352324894248	0
164	0	[742.1000000238419]	3	0	0.112072809820658	0.887927190179341	0	1	4	1	0	1	0.775854380358683	1
164	0	[725.4000000357628]	3	0	0.0837222805288849	0.916277719471115	1	1	5	1	0	1	0.83255543894223	1
164	1	[638.8000000119209]	3	1	0.884936053390975	0.115063946609024	3	1	6	1	0	1	0.769872106781951	1
164	1	[462.30000001192093]	3	1	0.852223456396796	0.147776543603203	4	0	7	1	0	1	0.704446912793593	1
164	1	[647]	3	1	0.860587349895686	0.139412650104313	100	1	8	1	0	1	0.721174699791373	1
164	1	[534.1999999880791]	3	1	0.947993980556013	0.0520060194439864	100	1	9	1	0	1	0.895987961112027	1
164	1	[342.0999999642372]	3	1	0.904462535300394	0.0955374646996059	100	0	10	1	0	1	0.808925070600788	1
164	0	[599.6999999880791]	3	0	0.0790992099319993	0.920900790068	0	1	11	1	0	1	0.841801580136001	1
164	1	[758.3000000119209]	3	1	0.889342780674118	0.110657219325881	100	1	12	1	0	1	0.778685561348237	1
164	0	[575.2999999523163]	3	0	0.0674113155508873	0.932588684449112	100	0	13	1	0	1	0.865177368898225	1
164	1	[479.69999998807907]	3	1	0.917415891806109	0.08258410819389	100	0	14	1	0	1	0.834831783612219	1
164	1	[759.8000000119209]	3	1	0.945366888686276	0.0546331113137235	1	1	15	1	0	1	0.890733777372553	1
164	0	[639.8000000119209]	3	0	0.11050100039425	0.889498999605749	99	1	16	1	0	1	0.778997999211499	1
164	1	[807.8999999761581]	3	1	0.853317110554708	0.146682889445291	3	0	17	1	0	1	0.706634221109417	1
164	1	[461.4000000357628]	3	1	0.882626614025944	0.117373385974055	0	1	18	1	0	1	0.765253228051889	1
164	0	[525.6999999880791]	3	0	0.116871630437364	0.883128369562636	1	1	19	1	0	1	0.766256739125272	1
164	0	[358.19999998807907]	3	0	0.0533733479715791	0.94662665202842	100	0	20	1	0	1	0.893253304056841	1
164	0	[359.60000002384186]	3	0	0.0836794967607347	0.916320503239265	100	1	21	1	0	1	0.83264100647853	1
164	1	[597.1999999880791]	3	1	0.895183922964749	0.10481607703525	2	1	22	1	0	1	0.790367845929499	1
164	0	[678.5999999642372]	3	0	0.0767056391484072	0.923294360851592	100	1	23	1	0	1	0.846588721703185	1
164	0	[711.0999999642372]	3	0	0.0807327207808324	0.919267279219167	1	0	24	1	0	1	0.838534558438335	1
164	0	[661.6999999880791]	3	0	0.0778702456806822	0.922129754319317	100	0	25	1	0	1	0.844259508638635	1
164	1	[600.2000000476837]	3	0	0.134809166355359	0.865190833644641	75	1	1	2	1	0	0.730381667289282	1
164	0	[733.6000000238419]	3	1	0.85349827585412	0.146501724145879	25	1	2	2	1	0	0.706996551708241	1
164	0	[381.39999997615814]	3	1	0.865745067300837	0.134254932699162	20	1	3	2	1	0	0.731490134601675	1
164	1	[439.9000000357628]	3	0	0.0625072598804514	0.937492740119548	99	1	4	2	1	0	0.874985480239097	1
164	1	[405.10000002384186]	3	0	0.145378053019632	0.854621946980367	8	0	5	2	1	0	0.709243893960735	1
164	1	[399.69999998807907]	3	0	0.0960654691682368	0.903934530831763	12	1	6	2	1	0	0.807869061663526	1
164	1	[487.4000000357628]	3	0	0.0716282571945222	0.928371742805477	100	1	7	2	1	0	0.856743485610955	1
164	0	[599.8999999761581]	3	1	0.928472000840784	0.0715279991592152	100	0	8	2	1	0	0.856944001681569	1
164	1	[847.8999999761581]	3	0	0.11546883993523	0.884531160064769	77	0	9	2	1	0	0.769062320129539	1
164	1	[387.7999999523163]	3	0	0.0840973761021759	0.915902623897824	5	1	10	2	1	0	0.831805247795648	1
164	1	[360.5]	3	0	0.0975757424299244	0.902424257570075	25	0	11	2	1	0	0.804848515140151	1
164	1	[631.7999999523163]	3	0	0.100388093967822	0.899611906032177	98	1	12	2	1	0	0.799223812064355	1
164	0	[854.5]	3	1	0.861932288470944	0.138067711529055	94	1	13	2	1	0	0.723864576941889	1
164	0	[432]	3	1	0.913642743071433	0.0863572569285666	24	1	14	2	1	0	0.827285486142866	1
164	0	[615.1000000238419]	3	1	0.869450897615036	0.130549102384963	7	1	15	2	1	0	0.738901795230073	1
164	1	[319.2000000476837]	3	0	0.121588302702305	0.878411697297695	9	0	16	2	1	0	0.75682339459539	1
164	0	[382.7999999523163]	3	1	0.878521197225401	0.121478802774598	100	1	17	2	1	0	0.757042394450803	1
164	0	[638.8000000119209]	3	1	0.869477388989519	0.13052261101048	98	1	18	2	1	0	0.738954777979039	1
164	0	[352.10000002384186]	3	1	0.878820576569878	0.121179423430121	96	0	19	2	1	0	0.757641153139757	1
164	0	[378.80000001192093]	3	1	0.947861212613684	0.0521387873863156	12	1	20	2	1	0	0.895722425227368	1
164	1	[319.69999998807907]	3	0	0.0522755707880616	0.947724429211938	5	1	21	2	1	0	0.895448858423876	1
164	1	[566.7000000476837]	3	0	0.129312708432392	0.870687291567607	9	1	22	2	1	0	0.741374583135215	1
164	0	[565.8999999761581]	3	1	0.901752189297444	0.0982478107025551	12	1	23	2	1	0	0.803504378594889	1
164	1	[591.5]	3	0	0.123109626228512	0.876890373771487	97	1	24	2	1	0	0.753780747542975	1
164	0	[373.5]	3	1	0.906602013285968	0.0933979867140316	95	0	25	2	1	0	0.813204026571936	1
164	1	[615.3999999761581]	3	0	0.07442627624962	0.925573723750379	100	0	1	3	0	0	0.851147447500759	0
164	1	[952.6000000238419]	3	1	0.926319491399617	0.0736805086003825	22	1	2	3	0	0	0.852638982799234	1
164	1	[486.30000001192093]	3	1	0.914687065428292	0.0853129345717074	75	1	3	3	0	0	0.829374130856585	1
164	0	[503.69999998807907]	3	0	0.0726307078771446	0.927369292122855	88	1	4	3	0	0	0.85473858424571	1
164	1	[573.3000000119209]	3	1	0.937078026058799	0.0629219739412003	49	0	5	3	0	0	0.874156052117599	1
164	0	[431.60000002384186]	3	0	0.123838023562388	0.876161976437611	50	0	6	3	0	0	0.752323952875223	1
164	0	[654]	3	0	0.10102633094896	0.898973669051039	41	1	7	3	0	0	0.797947338102079	1
164	1	[406.5]	3	1	0.900135907530773	0.0998640924692267	62	1	8	3	0	0	0.800271815061546	1
164	0	[584.1999999880791]	3	0	0.073144319363622	0.926855680636377	76	1	9	3	0	0	0.853711361272755	1
164	0	[438]	3	0	0.0681548664869137	0.931845133513086	23	1	10	3	0	0	0.863690267026172	1
164	1	[630.6999999880791,742.6000000238419]	3	1	0.886327484702948	0.113672515297051	50	1	11	3	0	0	0.772654969405897	1
164	1	[687.0999999642372]	3	1	0.910490130277431	0.0895098697225682	50	0	12	3	0	0	0.820980260554863	1
164	1	[535.1999999880791]	3	1	0.932451034579961	0.0675489654200388	77	1	13	3	0	0	0.864902069159922	1
164	0	[671.6999999880791]	3	0	0.145082673180256	0.854917326819743	50	0	14	3	0	0	0.709834653639487	1
164	0	[607.5999999642372]	3	0	0.0755602166561015	0.924439783343898	76	1	15	3	0	0	0.848879566687797	1
164	1	[424.4000000357628]	3	1	0.929051297546733	0.0709487024532661	50	0	16	3	0	0	0.858102595093467	1
164	1	[623.8000000119209]	3	1	0.879302522549525	0.120697477450474	23	1	17	3	0	0	0.758605045099051	1
164	0	[694.1999999880791]	3	0	0.145489829273864	0.854510170726135	77	1	18	3	0	0	0.709020341452271	1
164	1	[663.6000000238419]	3	1	0.912612821126489	0.087387178873511	50	0	19	3	0	0	0.825225642252978	1
164	0	[343.10000002384186]	3	0	0.102256844284948	0.897743155715051	36	0	20	3	0	0	0.795486311430103	1
164	1	[488.19999998807907]	3	1	0.910217830522505	0.0897821694774947	50	1	21	3	0	0	0.82043566104501	1
164	0	[640.3999999761581]	3	0	0.0748237744155384	0.925176225584461	23	1	22	3	0	0	0.850352451168923	1
164	1	[405.60000002384186]	3	1	0.907010724597426	0.0929892754025732	75	1	23	3	0	0	0.814021449194853	1
164	0	[410.89999997615814]	3	0	0.146078292818043	0.853921707181956	92	1	24	3	0	0	0.707843414363913	1
164	0	[687.0999999642372]	3	0	0.133733578881358	0.866266421118641	23	0	25	3	0	0	0.732532842237283	1
164	1	[784.8000000119209]	2	0	0.475603572631081	0.524396427368919	50	0	1	4	0	1	0.048792854737838	0
164	0	[768.3000000119209]	2	1	0.539747184892786	0.460252815107214	50	0	2	4	0	1	0.0794943697855719	0
164	1	[301.5999999642372]	2	0	0.404481299929414	0.595518700070585	50	0	3	4	0	1	0.191037400141171	0
164	1	[941.9000000357628]	2	0	0.497456092749154	0.502543907250846	50	0	4	4	0	1	0.00508781450169199	0
164	0	[365.5]	2	1	0.564925424204911	0.435074575795089	0	0	5	4	0	1	0.129850848409822	0
164	1	[605.1999999880791]	2	0	0.452573345316169	0.547426654683831	0	0	6	4	0	1	0.094853309367662	0
164	0	[727.3000000119209]	2	1	0.569141442404981	0.430858557595018	0	0	7	4	0	1	0.138282884809963	0
164	1	[365.39999997615814]	2	0	0.481534987612865	0.518465012387134	0	0	8	4	0	1	0.036930024774269	0
164	0	[263.19999998807907]	2	1	0.585079969031389	0.41492003096861	0	0	9	4	0	1	0.170159938062779	0
164	0	[336]	2	0	0.426907244957178	0.573092755042821	50	1	10	4	0	1	0.146185510085643	1
164	1	[615.6999999880791]	2	1	0.562088120163696	0.437911879836303	0	1	11	4	0	1	0.124176240327393	1
164	0	[431.30000001192093]	2	0	0.402912734328028	0.597087265671972	0	1	12	4	0	1	0.194174531343944	1
164	1	[521.6999999880791]	2	0	0.498664836821673	0.501335163178326	50	0	13	4	0	1	0.00267032635665304	0
164	0	[887.8000000119209]	2	1	0.528713043889913	0.471286956110086	50	0	14	4	0	1	0.0574260877798271	0
164	1	[477.19999998807907]	2	0	0.47644789771314	0.523552102286859	50	0	15	4	0	1	0.047104204573719	0
164	0	[899.8999999761581]	2	0	0.489281969458184	0.510718030541815	50	1	16	4	0	1	0.021436061083631	1
164	1	[463.69999998807907]	2	1	0.588591453709597	0.411408546290402	74	1	17	4	0	1	0.177182907419195	1
164	0	[559.3000000119209]	2	0	0.414455951902577	0.585544048097422	50	1	18	4	0	1	0.171088096194845	1
164	1	[431.4000000357628]	2	1	0.532689947839637	0.467310052160362	23	1	19	4	0	1	0.065379895679275	1
164	1	[695.6999999880791]	2	1	0.563574860451289	0.43642513954871	73	1	20	4	0	1	0.127149720902579	1
164	1	[560]	2	1	0.592636193162197	0.407363806837803	76	1	21	4	0	1	0.185272386324394	1
164	0	[447.60000002384186]	2	0	0.433522046833104	0.566477953166895	87	1	22	4	0	1	0.132955906333791	1
164	1	[396.80000001192093]	2	1	0.579398506307514	0.420601493692485	75	1	23	4	0	1	0.158797012615029	1
164	0	[551.5]	2	0	0.459263825842381	0.540736174157618	92	1	24	4	0	1	0.081472348315237	1
164	1	[486.39999997615814]	2	1	0.512439801185684	0.487560198814315	13	0	25	4	0	1	0.024879602371369	1
164	0	[647.1000000238419]	2	0	0.445220429380509	0.55477957061949	50	0	1	5	1	0	0.109559141238981	0
164	0	[576.3999999761581]	2	1	0.532993893890692	0.467006106109308	50	1	2	5	1	0	0.065987787781384	1
164	0	[534.5999999642372]	2	1	0.52695149645655	0.473048503543449	50	1	3	5	1	0	0.053902992913101	1
164	1	[548.1000000238419]	2	0	0.421696283249711	0.578303716750288	76	1	4	5	1	0	0.156607433500577	1
164	1	[486.5]	2	0	0.438118685171003	0.561881314828996	75	1	5	5	1	0	0.123762629657993	1
164	0	[672.1999999880791]	2	1	0.554028199441443	0.445971800558556	31	1	6	5	1	0	0.108056398882887	1
164	0	[480.39999997615814]	2	1	0.577574290954724	0.422425709045275	50	1	7	5	1	0	0.155148581909449	1
164	1	[554.9000000357628]	2	0	0.443165196587578	0.556834803412421	50	1	8	5	1	0	0.113669606824843	1
164	1	[742.5999999642372]	2	0	0.448601458430596	0.551398541569404	26	1	9	5	1	0	0.102797083138808	1
164	0	[885.6999999880791]	2	1	0.557791715911598	0.442208284088401	76	1	10	5	1	0	0.115583431823197	1
164	1	[485.5]	2	0	0.412284588111599	0.5877154118884	34	1	11	5	1	0	0.175430823776801	1
164	0	[424.5]	2	1	0.59806569179284	0.401934308207159	24	1	12	5	1	0	0.196131383585681	1
164	1	[760.0999999642372]	2	0	0.47178827914065	0.528211720859349	10	1	13	5	1	0	0.056423441718699	1
164	0	[845.3999999761581]	2	1	0.507004563377605	0.492995436622394	7	1	14	5	1	0	0.014009126755211	1
164	1	[487.39999997615814]	2	0	0.420965082361787	0.579034917638212	99	1	15	5	1	0	0.158069835276425	1
164	1	[432.10000002384186]	2	0	0.41891884897697	0.581081151023029	100	1	16	5	1	0	0.162162302046059	1
164	0	[520.5]	2	1	0.558968217074367	0.441031782925632	99	1	17	5	1	0	0.117936434148735	1
164	0	[776.5999999642372]	2	1	0.537909111734108	0.462090888265891	0	1	18	5	1	0	0.075818223468217	1
164	0	[558.3999999761581]	2	1	0.568655387695061	0.431344612304938	0	1	19	5	1	0	0.137310775390123	1
164	0	[573.2999999523163]	2	1	0.535596616097084	0.464403383902915	50	1	20	5	1	0	0.071193232194169	1
164	1	[538.3000000119209,778.1000000238419]	2	0	0.446551686702333	0.553448313297666	0	1	21	5	1	0	0.106896626595333	1
164	0	[464]	2	1	0.580542002722464	0.419457997277535	100	1	22	5	1	0	0.161084005444929	1
164	1	[656]	2	0	0.469686727175242	0.530313272824757	1	1	23	5	1	0	0.060626545649515	1
164	1	[695.6999999880791]	2	0	0.478710925673301	0.521289074326698	0	1	24	5	1	0	0.042578148653397	1
164	0	[582.8000000119209]	2	1	0.511205260814561	0.488794739185438	1	1	25	5	1	0	0.022410521629123	1
164	1	[525.9000000357628]	2	0	0.464719122980748	0.535280877019251	50	0	1	6	0	0	0.070561754038503	0
164	1	[591.9000000357628]	2	1	0.507545090328208	0.492454909671791	50	1	2	6	0	0	0.015090180656417	1
164	0	[605.7999999523163]	2	0	0.418370599764161	0.581629400235838	24	1	3	6	0	0	0.163258800471677	1
164	0	[602.4000000357628]	2	0	0.405847659087128	0.594152340912871	25	1	4	6	0	0	0.188304681825743	1
164	1	[406.4000000357628]	2	1	0.559951004037865	0.440048995962134	79	1	5	6	0	0	0.119902008075731	1
164	1	[551]	2	1	0.570994211838047	0.429005788161952	23	1	6	6	0	0	0.141988423676095	1
164	1	[543.1999999880791]	2	0	0.460443767462085	0.539556232537914	76	0	7	6	0	0	0.079112465075829	0
164	1	[542.8999999761581]	2	1	0.500629725242843	0.499370274757156	87	1	8	6	0	0	0.00125945048568699	1
164	0	[550.6000000238419]	2	0	0.468752874952304	0.531247125047695	89	1	9	6	0	0	0.062494250095391	1
164	1	[479.19999998807907]	2	1	0.552785118333089	0.44721488166691	93	1	10	6	0	0	0.105570236666179	1
164	0	[461.69999998807907]	2	0	0.433513545322682	0.566486454677317	9	1	11	6	0	0	0.132972909354635	1
164	1	[499.9000000357628]	2	1	0.542721936092943	0.457278063907056	80	1	12	6	0	0	0.0854438721858869	1
164	0	[469.69999998807907]	2	0	0.445754150194304	0.554245849805695	8	1	13	6	0	0	0.108491699611391	1
164	1	[529.5]	2	1	0.53211684572877	0.467883154271229	2	1	14	6	0	0	0.064233691457541	1
164	0	[734.1000000238419]	2	1	0.511516538000797	0.488483461999202	0	0	15	6	0	0	0.023033076001595	0
164	0	[535.6999999880791]	2	0	0.47703571964328	0.52296428035672	100	1	16	6	0	0	0.04592856071344	1
164	0	[457.10000002384186]	2	0	0.433310384165722	0.566689615834277	100	1	17	6	0	0	0.133379231668555	1
164	0	[495.80000001192093]	2	0	0.434473392748686	0.565526607251313	0	1	18	6	0	0	0.131053214502627	1
164	1	[439.7999999523163]	2	1	0.573066493405154	0.426933506594845	0	1	19	6	0	0	0.146132986810309	1
164	1	[551]	2	1	0.507965302055699	0.4920346979443	0	1	20	6	0	0	0.015930604111399	1
164	0	[479.30000001192093]	2	0	0.461595108489262	0.538404891510737	100	1	21	6	0	0	0.076809783021475	1
164	1	[640.8000000119209]	2	1	0.544629621298174	0.455370378701825	100	1	22	6	0	0	0.089259242596349	1
164	1	[661.5]	2	1	0.546379990565298	0.453620009434701	0	1	23	6	0	0	0.092759981130597	1
164	0	[614.2999999523163]	2	0	0.4389400411085	0.561059958891499	0	1	24	6	0	0	0.122119917782999	1
164	1	[582.3000000119209]	2	1	0.500706077593098	0.499293922406901	95	0	25	6	0	0	0.00141215518619703	1
164	0	[687]	1	1	0.548947400652262	0.451052599347737	50	1	1	7	1	1	0.097894801304525	1
164	1	[745.2999999523163]	1	0	0.484057144921392	0.515942855078608	50	1	2	7	1	1	0.031885710157216	1
164	1	[885.7999999523163,989.5999999642372]	1	0	0.474553299915452	0.525446700084547	76	1	3	7	1	1	0.050893400169095	1
164	1	[648.0999999642372]	1	0	0.468059453731932	0.531940546268068	50	0	4	7	1	1	0.063881092536136	1
164	0	[590.3000000119209]	1	1	0.590326046564617	0.409673953435382	77	1	5	7	1	1	0.180652093129235	1
164	0	[510]	1	1	0.550545391830777	0.449454608169222	50	0	6	7	1	1	0.101090783661555	1
164	0	[426.10000002384186]	1	1	0.588146277985236	0.411853722014764	50	1	7	7	1	1	0.176292555970472	1
164	0	[487.69999998807907]	1	1	0.53266904842041	0.467330951579589	64	1	8	7	1	1	0.065338096840821	1
164	0	[405.60000002384186]	1	1	0.599846056737659	0.40015394326234	78	1	9	7	1	1	0.199692113475319	1
164	0	[792.2999999523163]	1	0	0.493674341028393	0.506325658971607	50	0	10	7	1	1	0.0126513179432139	0
164	1	[543.5999999642372]	1	0	0.443097489979323	0.556902510020676	65	0	11	7	1	1	0.113805020041353	1
164	0	[703.6999999880791]	1	1	0.5622553362871	0.437744663712899	65	0	12	7	1	1	0.124510672574201	1
164	1	[934.6000000238419]	1	1	0.500224112793752	0.499775887206248	50	0	13	7	1	1	0.000448225587504014	0
164	1	[756.7999999523163]	1	0	0.496085553347001	0.503914446652998	50	1	14	7	1	1	0.00782889330599701	1
164	1	[436.89999997615814]	1	0	0.433349938692153	0.566650061307846	50	0	15	7	1	1	0.133300122615693	1
164	0	[407.19999998807907]	1	1	0.569924689252206	0.430075310747793	50	1	16	7	1	1	0.139849378504413	1
164	1	[623.6999999880791]	1	0	0.471150711936349	0.52884928806365	50	1	17	7	1	1	0.0576985761273009	1
164	0	[423.69999998807907]	1	1	0.577053436655333	0.422946563344666	50	0	18	7	1	1	0.154106873310667	1
164	1	[598.3000000119209]	1	1	0.514113930951387	0.485886069048612	50	0	19	7	1	1	0.028227861902775	0
164	1	[462.89999997615814,543.0999999642372]	1	0	0.432847198353332	0.567152801646667	50	0	20	7	1	1	0.134305603293335	1
164	1	[717.5999999642372]	1	1	0.539285207756397	0.460714792243602	50	0	21	7	1	1	0.078570415512795	0
164	1	[735.6999999880791]	1	1	0.532831816586981	0.467168183413018	60	1	22	7	1	1	0.065663633173963	0
164	1	[534.6999999880791]	1	0	0.452865621065444	0.547134378934555	40	1	23	7	1	1	0.094268757869111	1
164	1	[533.5999999642372]	1	0	0.470384542991442	0.529615457008557	70	1	24	7	1	1	0.0592309140171149	1
164	1	[557.6000000238419]	1	0	0.48547285481294	0.514527145187059	77	0	25	7	1	1	0.029054290374119	1
164	1	[462.19999998807907]	3	0	0.126660447068149	0.87333955293185	100	1	1	8	1	1	0.746679105863701	1
164	1	[407.69999998807907]	3	0	0.0536198879926597	0.94638011200734	0	1	2	8	1	1	0.89276022401468	1
164	1	[344]	3	0	0.0792679730761031	0.920732026923896	73	0	3	8	1	1	0.841464053847793	1
164	0	[399.5]	3	1	0.882882107399362	0.117117892600637	100	1	4	8	1	1	0.765764214798725	1
164	0	[414.5]	3	1	0.920663936908896	0.0793360630911031	100	1	5	8	1	1	0.841327873817793	1
164	0	[326.69999998807907]	3	1	0.93638469269184	0.0636153073081592	77	0	6	8	1	1	0.872769385383681	1
164	1	[391.5]	3	0	0.122788296061843	0.877211703938156	0	1	7	8	1	1	0.754423407876313	1
164	0	[406.19999998807907]	3	1	0.864511063803786	0.135488936196213	3	1	8	8	1	1	0.729022127607573	1
164	0	[342.39999997615814]	3	1	0.898469613650778	0.101530386349221	100	1	9	8	1	1	0.796939227301557	1
164	0	[311.69999998807907]	3	1	0.892125191674851	0.107874808325148	100	1	10	8	1	1	0.784250383349703	1
164	1	[349.4000000357628]	3	0	0.14811988980181	0.851880110198189	1	1	11	8	1	1	0.703760220396379	1
164	1	[477.5999999642372]	3	0	0.069766576699205	0.930233423300795	0	0	12	8	1	1	0.86046684660159	1
164	0	[623.2999999523163]	3	1	0.904178050301496	0.0958219496985032	100	0	13	8	1	1	0.808356100602993	1
164	1	[303.60000002384186]	3	0	0.147443166438483	0.852556833561516	100	1	14	8	1	1	0.705113667123033	1
164	0	[303.9000000357628]	3	1	0.932710297428143	0.0672897025718565	100	1	15	8	1	1	0.865420594856287	1
164	0	[348.9000000357628]	3	1	0.900274034332481	0.0997259656675185	100	1	16	8	1	1	0.800548068664963	1
164	0	[629.3999999761581]	3	1	0.87436484607479	0.125635153925209	1	0	17	8	1	1	0.748729692149581	1
164	1	[439.89999997615814]	3	0	0.100121906336348	0.899878093663651	100	0	18	8	1	1	0.799756187327303	1
164	1	[375.19999998807907]	3	0	0.0691563434481001	0.930843656551899	100	1	19	8	1	1	0.861687313103799	1
164	1	[333]	3	0	0.0698304237568441	0.930169576243155	100	0	20	8	1	1	0.860339152486311	1
164	1	[365.4000000357628]	3	0	0.107218618025324	0.892781381974675	100	1	21	8	1	1	0.785562763949351	1
164	1	[335.5999999642372]	3	0	0.127727429860891	0.872272570139108	100	1	22	8	1	1	0.744545140278217	1
164	1	[351]	3	0	0.0768672235437689	0.923132776456231	100	1	23	8	1	1	0.846265552912462	1
164	0	[421.80000001192093]	3	1	0.942026071575413	0.0579739284245868	0	1	24	8	1	1	0.884052143150826	1
164	0	[389.69999998807907]	3	1	0.928777066412989	0.0712229335870109	2	0	25	8	1	1	0.857554132825978	1
164	0	[589.3000000119209]	1	1	0.580519118631323	0.419480881368676	50	0	1	9	0	1	0.161038237262647	0
164	1	[598.7999999523163]	1	1	0.529673307196393	0.470326692803606	50	1	2	9	0	1	0.059346614392787	1
164	1	[412.2000000476837]	1	1	0.592348599563358	0.407651400436641	50	0	3	9	0	1	0.184697199126717	1
164	0	[446]	1	0	0.439713647058653	0.560286352941346	65	1	4	9	0	1	0.120572705882693	1
164	1	[495.0999999642372]	1	1	0.52318009969679	0.476819900303209	76	1	5	9	0	1	0.046360199393581	1
164	1	[423.10000002384186]	1	1	0.570941816800349	0.42905818319965	38	1	6	9	0	1	0.141883633600699	1
164	1	[535.3000000119209,935.2000000476837]	1	0	0.489144544815395	0.510855455184604	25	1	7	9	0	1	0.021710910369209	0
164	1	[485.4000000357628]	1	1	0.543715014972363	0.456284985027636	50	0	8	9	0	1	0.087430029944727	1
164	0	[509.2000000476837]	1	0	0.477285889444197	0.522714110555802	75	1	9	9	0	1	0.045428221111605	1
164	1	[766.5]	1	1	0.514421410059802	0.485578589940197	76	1	10	9	0	1	0.028842820119605	1
164	0	[519.6000000238419]	1	0	0.459274023331182	0.540725976668817	66	1	11	9	0	1	0.0814519533376351	1
164	1	[470.5999999642372]	1	1	0.596071604204144	0.403928395795855	35	0	12	9	0	1	0.192143208408289	1
164	1	[464.69999998807907]	1	1	0.598716254484714	0.401283745515286	32	1	13	9	0	1	0.197432508969428	1
164	1	[463.7999999523163]	1	1	0.5726546846667	0.427345315333299	50	0	14	9	0	1	0.145309369333401	1
164	0	[661.6999999880791]	1	1	0.539667893981951	0.460332106018048	50	0	15	9	0	1	0.079335787963903	0
164	0	[495.7000000476837]	1	1	0.513820016341062	0.486179983658937	66	0	16	9	0	1	0.027640032682125	0
164	1	[455.80000001192093]	1	1	0.548729052875368	0.451270947124632	38	1	17	9	0	1	0.097458105750736	1
164	0	[474.39999997615814]	1	0	0.421485440846045	0.578514559153954	23	1	18	9	0	1	0.157029118307909	1
164	0	[472.30000001192093]	1	0	0.419315248485865	0.580684751514134	73	0	19	9	0	1	0.161369503028269	1
164	0	[511.10000002384186]	1	0	0.42118742690939	0.578812573090609	22	1	20	9	0	1	0.157625146181219	1
164	0	[957.3000000119209]	1	0	0.427844455839513	0.572155544160486	79	1	21	9	0	1	0.144311088320973	1
164	0	[360.10000002384186]	1	0	0.401635699968483	0.598364300031516	77	0	22	9	0	1	0.196728600063033	1
164	0	[628]	1	0	0.465245102549847	0.534754897450152	23	1	23	9	0	1	0.069509794900305	1
164	0	[436.9000000357628]	1	0	0.420691032326565	0.579308967673434	19	1	24	9	0	1	0.158617935346869	1
164	0	[853]	1	0	0.464588762845794	0.535411237154205	10	0	25	9	0	1	0.070822474308411	1
164	1	[351]	1	0	0.449215635470304	0.550784364529695	50	0	1	10	0	0	0.101568729059391	0
164	1	[439.69999998807907]	1	0	0.420672074663413	0.579327925336587	50	1	2	10	0	0	0.158655850673174	0
164	0	[639.9000000357628]	1	0	0.496945699361118	0.503054300638881	50	1	3	10	0	0	0.00610860127776303	1
164	0	[533.0999999642372]	1	1	0.554836967617371	0.445163032382628	50	0	4	10	0	0	0.109673935234743	0
164	0	[519]	1	1	0.564140508346557	0.435859491653442	50	0	5	10	0	0	0.128281016693115	0
164	0	[470.5]	1	1	0.578711234118019	0.42128876588198	50	1	6	10	0	0	0.157422468236039	0
164	1	[549.5999999642372]	1	0	0.444316424278109	0.55568357572189	50	0	7	10	0	0	0.111367151443781	0
164	0	[446.5999999642372]	1	1	0.578007096017587	0.421992903982412	50	0	8	10	0	0	0.156014192035175	0
164	0	[558.8000000119209]	1	1	0.59786249754379	0.402137502456209	50	0	9	10	0	0	0.195724995087581	0
164	1	[463.2999999523163]	1	0	0.456036802486376	0.543963197513624	50	0	10	10	0	0	0.087926395027248	0
164	0	[381.30000001192093]	1	0	0.404558390301865	0.595441609698134	50	0	11	10	0	0	0.190883219396269	1
164	1	[628.8999999761581]	1	0	0.476140657356323	0.523859342643676	50	0	12	10	0	0	0.047718685287353	0
164	1	[191.5]	1	1	0.526887685693067	0.473112314306932	50	0	13	10	0	0	0.053775371386135	1
164	0	[767.3999999761581]	1	1	0.547550094105231	0.452449905894768	50	0	14	10	0	0	0.095100188210463	0
164	1	[619.3999999761581]	1	1	0.520927191199318	0.479072808800681	50	0	15	10	0	0	0.041854382398637	1
164	0	[725.5]	1	1	0.531336940641706	0.468663059358293	50	0	16	10	0	0	0.062673881283413	0
164	1	[464.4000000357628]	1	0	0.437512076165508	0.562487923834491	50	0	17	10	0	0	0.124975847668983	0
164	1	[375.39999997615814]	1	0	0.451199218033959	0.54880078196604	50	1	18	10	0	0	0.097601563932081	0
164	0	[596.5999999642372]	1	1	0.519472346585659	0.48052765341434	50	1	19	10	0	0	0.038944693171319	0
164	0	[614.7000000476837]	1	1	0.536843346646026	0.463156653353973	50	0	20	10	0	0	0.073686693292053	0
164	0	[375]	1	1	0.515644203334904	0.484355796665095	50	0	21	10	0	0	0.031288406669809	0
164	1	[413.7999999523163]	1	0	0.469570407977352	0.530429592022648	50	0	22	10	0	0	0.0608591840452961	0
164	1	[462.69999998807907]	1	0	0.402366731667322	0.597633268332677	50	0	23	10	0	0	0.195266536665355	0
164	1	[606.6999999880791]	1	1	0.559880065185122	0.440119934814877	50	0	24	10	0	0	0.119760130370245	1
164	1	[494.69999998807907]	1	0	0.433294804163193	0.566705195836806	50	0	25	10	0	0	0.133410391673613	0
164	1	[646.5999999642372]	1	0	0.403391039340094	0.596608960659905	50	1	1	11	1	0	0.193217921319811	1
164	1	[461.80000001192093]	1	0	0.402801257272869	0.59719874272713	31	1	2	11	1	0	0.194397485454261	1
164	0	[437.89999997615814]	1	1	0.597934221718538	0.402065778281461	23	1	3	11	1	0	0.195868443437077	1
164	0	[382.4000000357628]	1	1	0.57628184849556	0.42371815150444	75	1	4	11	1	0	0.15256369699112	1
164	0	[462.30000001192093]	1	1	0.592011664176771	0.407988335823228	25	0	5	11	1	0	0.184023328353543	1
164	1	[469.30000001192093]	1	0	0.435921912788954	0.564078087211045	23	0	6	11	1	0	0.128156174422091	1
164	1	[519.6999999880791]	1	0	0.436607145416116	0.563392854583883	9	1	7	11	1	0	0.126785709167767	1
164	1	[463.5]	1	0	0.421510388763656	0.578489611236343	89	1	8	11	1	0	0.156979222472687	1
164	0	[537.0999999642372]	1	1	0.599531854714529	0.40046814528547	7	1	9	11	1	0	0.199063709429059	1
164	1	[479.30000001192093]	1	0	0.482899657581889	0.51710034241811	6	0	10	11	1	0	0.034200684836221	1
164	1	[430.89999997615814]	1	0	0.426449577941417	0.573550422058583	0	1	11	11	1	0	0.147100844117166	1
164	1	[461.30000001192093]	1	0	0.418126460626798	0.581873539373202	80	0	12	11	1	0	0.163747078746404	1
164	0	[375.30000001192093]	1	1	0.586760898855763	0.413239101144236	81	1	13	11	1	0	0.173521797711527	1
164	0	[463.5]	1	1	0.586044242057193	0.413955757942807	87	1	14	11	1	0	0.172088484114386	1
164	1	[503.0999999642372]	1	0	0.461076505390055	0.538923494609944	4	1	15	11	1	0	0.077846989219889	1
164	0	[590]	1	1	0.540541036443714	0.459458963556285	4	1	16	11	1	0	0.081082072887429	1
164	0	[438.19999998807907]	1	1	0.574893063480211	0.425106936519789	50	1	17	11	1	0	0.149786126960422	1
164	0	[446.80000001192093]	1	1	0.567234187779813	0.432765812220186	9	0	18	11	1	0	0.134468375559627	1
164	1	[415.0999999642372]	1	0	0.411180496924539	0.58881950307546	74	0	19	11	1	0	0.177639006150921	1
164	1	[511.10000002384186]	1	0	0.459501029961956	0.540498970038043	76	1	20	11	1	0	0.080997940076087	1
164	1	[494.89999997615814]	1	0	0.457581187395762	0.542418812604238	7	1	21	11	1	0	0.084837625208476	1
164	0	[367]	1	1	0.588904403552184	0.411095596447815	9	1	22	11	1	0	0.177808807104369	1
164	0	[517.1999999880791]	1	1	0.534221198010169	0.46577880198983	4	1	23	11	1	0	0.068442396020339	1
164	1	[631.5]	1	0	0.472029257398041	0.527970742601958	78	1	24	11	1	0	0.055941485203917	1
164	0	[588.6000000238419]	1	1	0.535852469310074	0.464147530689925	73	0	25	11	1	0	0.071704938620149	1
164	1	[637.9000000357628]	2	0	0.466409560547614	0.533590439452385	0	1	1	12	1	1	0.067180878904771	1
164	1	[546.1999999880791]	2	1	0.544873431338756	0.455126568661243	50	0	2	12	1	1	0.089746862677513	0
164	1	[517]	2	1	0.546391387941736	0.453608612058263	50	0	3	12	1	1	0.092782775883473	0
164	0	[367.5]	2	0	0.420333542683243	0.579666457316756	50	0	4	12	1	1	0.159332914633513	0
164	0	[404.39999997615814]	2	1	0.571770143018082	0.428229856981917	50	1	5	12	1	1	0.143540286036165	1
164	0	[607.1999999880791]	2	1	0.526120182937452	0.473879817062547	50	1	6	12	1	1	0.052240365874905	1
164	0	[653.5]	2	1	0.504277634601431	0.495722365398568	50	1	7	12	1	1	0.00855526920286304	1
164	1	[415.19999998807907]	2	0	0.410741786068482	0.589258213931517	50	1	8	12	1	1	0.178516427863035	1
164	1	[604.8000000119209]	2	0	0.480434249173723	0.519565750826276	76	1	9	12	1	1	0.039131501652553	1
164	0	[495.4000000357628]	2	1	0.537785443206238	0.462214556793761	23	1	10	12	1	1	0.075570886412477	1
164	0	[527.6999999880791]	2	1	0.566080558508231	0.433919441491768	76	1	11	12	1	1	0.132161117016463	1
164	0	[437.60000002384186]	2	1	0.541710583584496	0.458289416415503	6	1	12	12	1	1	0.0834211671689929	1
164	0	[823.4000000357628]	2	1	0.567079011881361	0.432920988118638	88	1	13	12	1	1	0.134158023762723	1
164	1	[894.1000000238419]	2	0	0.436875946777753	0.563124053222246	7	1	14	12	1	1	0.126248106444493	1
164	0	[359.60000002384186]	2	1	0.571680048218631	0.428319951781368	94	1	15	12	1	1	0.143360096437263	1
164	0	[503.4000000357628]	2	1	0.51553234821841	0.484467651781589	5	1	16	12	1	1	0.031064696436821	1
164	0	[894.1000000238419]	2	0	0.489166217483724	0.510833782516275	50	0	17	12	1	1	0.021667565032551	0
164	1	[487.39999997615814]	2	0	0.423955178206163	0.576044821793836	2	1	18	12	1	1	0.152089643587673	1
164	1	[470.80000001192093]	2	0	0.415905081557749	0.584094918442251	0	1	19	12	1	1	0.168189836884502	1
164	1	[606.3000000119209]	2	0	0.476839113276477	0.523160886723522	0	1	20	12	1	1	0.046321773447045	1
164	1	[487.69999998807907]	2	0	0.488799903309962	0.511200096690037	99	1	21	12	1	1	0.022400193380075	1
164	1	[613.3999999761581]	2	0	0.478122781221503	0.521877218778496	100	1	22	12	1	1	0.043754437556993	1
164	1	[414.30000001192093]	2	0	0.437006979904545	0.562993020095454	1	1	23	12	1	1	0.125986040190909	1
164	0	[567.3999999761581]	2	1	0.56019823940196	0.439801760598039	100	0	24	12	1	1	0.120396478803921	1
164	1	[469.5]	2	0	0.492535090121793	0.507464909878206	1	0	25	12	1	1	0.0149298197564131	1
