ID	choice	rt	condition_int	state	contrast_left	contrast_right	reward	trials	blocks	contrast	ecoperf
29	1	709.700000017881	1	0	0.449885917164639	0.550114082835361	1	1	1	1	1
29	0	394.099999994039	1	1	0.520623391215224	0.479376608784775	0	2	1	1	1
29	1	288.899999976158	1	0	0.420197545252448	0.579802454747551	1	3	1	1	1
29	1	962	1	0	0.489948927109573	0.510051072890426	1	4	1	1	1
29	0	570.30000001192	1	1	0.52319943030531	0.47680056969469	0	5	1	1	1
29	1	313	1	0	0.439290319990866	0.560709680009133	1	6	1	1	1
29	1	811.5	1	0	0.457441759122035	0.542558240877964	1	7	1	1	1
29	0	472.599999994039	1	1	0.564647269424425	0.435352730575574	0	8	1	1	1
29	0	456.199999988079	1	0	0.482922411435809	0.51707758856419	1	9	1	1	0
29	1	459.199999988079	1	0	0.446108966542071	0.553891033457928	1	10	1	1	1
29	1	416.5	1	0	0.464283219254994	0.535716780745005	1	11	1	1	1
29	1	470.699999988079	1	1	0.509022967923568	0.490977032076431	0	12	1	1	0
29	1	567.80000001192	1	0	0.428775659110106	0.571224340889893	1	13	1	1	1
29	1	663.5	1	0	0.44843118049907	0.551568819500929	1	14	1	1	1
29	0	272.5	1	1	0.566369128918506	0.433630871081493	0	15	1	1	1
29	0	488.099999994039	1	1	0.531718615736591	0.468281384263408	0	16	1	1	1
29	1	604.699999988079	1	0	0.442423152583528	0.557576847416471	1	17	1	1	1
29	1	758.5	1	0	0.490919206154064	0.509080793845935	1	18	1	1	1
29	1	901.699999988079	1	0	0.496036780714211	0.503963219285788	1	19	1	1	1
29	0	463.199999988079	1	1	0.571718682828312	0.428281317171687	0	20	1	1	1
29	0	579.700000017881	1	1	0.537357686819416	0.462642313180583	0	21	1	1	1
29	0	579.699999988079	1	1	0.577198823913579	0.42280117608642	0	22	1	1	1
29	0	785.299999982118	1	1	0.52308079515957	0.476919204840429	0	23	1	1	1
29	0	704	1	1	0.563822407234911	0.436177592765088	0	24	1	1	1
29	0	784.599999994039	1	1	0.503485104522243	0.496514895477756	0	25	1	1	1
29	1	613.30000001192	4	0	0.172316873819708	0.827683126180291	1	1	2	1	1
29	1	478.80000001192	4	0	0.156744921901096	0.843255078098903	1	2	2	1	1
29	1	600.199999988079	4	0	0.193267900665806	0.806732099334193	1	3	2	1	1
29	0	451.099999994039	4	1	0.875441450422157	0.124558549577842	0	4	2	1	1
29	0	397.700000017881	4	1	0.84724328563331	0.152756714366689	0	5	2	1	1
29	0	414.30000001192	4	1	0.840349301373648	0.159650698626351	0	6	2	1	1
29	0	424.699999988079	4	1	0.866140639990037	0.133859360009962	0	7	2	1	1
29	0	385	4	1	0.820000076991339	0.17999992300866	0	8	2	1	1
29	0	314.899999976158	4	1	0.857840463321313	0.142159536678686	0	9	2	1	1
29	0	411	4	1	0.813771675416395	0.186228324583604	0	10	2	1	1
29	1	512.599999994039	4	0	0.153917979954126	0.846082020045873	1	11	2	1	1
29	1	414.199999988079	4	0	0.181488604707854	0.818511395292145	1	12	2	1	1
29	0	505.099999994039	4	1	0.847173883868145	0.152826116131854	0	13	2	1	1
29	0	363.599999994039	4	1	0.823950053400533	0.176049946599466	0	14	2	1	1
29	1	434.80000001192	4	0	0.134087152155611	0.865912847844388	1	15	2	1	1
29	1	499.5	4	0	0.194342227441195	0.805657772558804	1	16	2	1	1
29	1	436.099999994039	4	0	0.125417621793373	0.874582378206626	1	17	2	1	1
29	1	463.5	4	0	0.125181664681234	0.874818335318765	1	18	2	1	1
29	0	391.699999988079	4	1	0.844777293747067	0.155222706252932	0	19	2	1	1
29	0	358.30000001192	4	1	0.856532537163351	0.143467462836648	0	20	2	1	1
29	0	351.099999994039	4	1	0.834322522524146	0.165677477475853	0	21	2	1	1
29	1	421.40000000596	4	0	0.155385004581402	0.844614995418597	1	22	2	1	1
29	1	436.80000001192	4	0	0.193553752589697	0.806446247410302	1	23	2	1	1
29	1	433.200000017881	4	0	0.170789739820597	0.829210260179402	1	24	2	1	1
29	0	381	4	1	0.810810960950583	0.189189039049416	0	25	2	1	1
29	0	414.299999982118	4	0	0.169652566490798	0.830347433509201	0	1	3	0	1
29	1	424.40000000596	4	1	0.875227644902215	0.124772355097784	1	2	3	0	1
29	0	384.5	4	0	0.16729694340386	0.832703056596139	0	3	3	0	1
29	1	407.40000000596	4	1	0.850436179881031	0.149563820118968	1	4	3	0	1
29	0	366.799999982118	4	0	0.199380042859236	0.800619957140763	0	5	3	0	1
29	0	517.30000001192	4	0	0.135122122132064	0.864877877867935	0	6	3	0	1
29	0	481	4	0	0.187703286065773	0.812296713934226	0	7	3	0	1
29	1	485.90000000596	4	1	0.813440091749785	0.186559908250214	1	8	3	0	1
29	1	455.90000000596	4	1	0.824083478145052	0.175916521854947	1	9	3	0	1
29	0	425.199999988079	4	0	0.172094493530425	0.827905506469574	0	10	3	0	1
29	1	455.5	4	1	0.873270340034144	0.126729659965855	1	11	3	0	1
29	0	433	4	0	0.180373874230826	0.819626125769173	0	12	3	0	1
29	1	427.80000001192	4	1	0.850278411344817	0.149721588655183	1	13	3	0	1
29	1	442.40000000596	4	1	0.819325536340637	0.180674463659362	1	14	3	0	1
29	0	452.30000001192	4	0	0.153627977024179	0.84637202297582	0	15	3	0	1
29	1	572.099999994039	4	1	0.874630067073109	0.12536993292689	1	16	3	0	1
29	1	482.699999988079	4	1	0.831667345765942	0.168332654234057	1	17	3	0	1
29	1	491	4	0	0.135301530191549	0.86469846980845	0	18	3	0	0
29	1	422.199999988079	4	1	0.862500902326205	0.137499097673794	1	19	3	0	1
29	1	448.899999976158	4	1	0.802232313149647	0.197767686850352	1	20	3	0	1
29	0	455.699999988079	4	0	0.164167997928163	0.835832002071836	0	21	3	0	1
29	1	487	4	1	0.824286792567746	0.175713207432253	1	22	3	0	1
29	1	458.799999982118	4	1	0.85297210132282	0.147027898677179	1	23	3	0	1
29	0	428.5	4	0	0.132261445635505	0.867738554364494	0	24	3	0	1
29	0	533.80000001192	4	0	0.148430279056264	0.851569720943735	0	25	3	0	1
29	0	607.30000001192	2	1	0.549833890886926	0.450166109113073	1	1	4	0	0
29	0	678.599999994039	2	0	0.464656051818779	0.53534394818122	0	2	4	0	1
29	0	599	2	0	0.470823256492686	0.529176743507313	0	3	4	0	1
29	0	562.199999988079	2	0	0.453393748052246	0.546606251947753	0	4	4	0	1
29	0	720	2	0	0.459252669434925	0.540747330565074	0	5	4	0	1
29	1	779.699999988079	2	1	0.512800915229804	0.487199084770195	1	6	4	0	1
29	1	811.099999994039	2	1	0.570662991681965	0.429337008318035	1	7	4	0	1
29	0	981.599999994039	2	0	0.488950930472548	0.511049069527451	0	8	4	0	1
29	1	661.5	2	1	0.560211944508777	0.439788055491222	1	9	4	0	1
29	1	587.799999982118	2	1	0.520044129944461	0.479955870055538	1	10	4	0	1
29	0	529.90000000596	2	0	0.437282187631995	0.562717812368004	0	11	4	0	1
29	0	489.90000000596	2	0	0.429899143307255	0.570100856692744	0	12	4	0	1
29	0	712.80000001192	2	0	0.465625302600798	0.534374697399201	0	13	4	0	1
29	0	796.40000000596	2	0	0.427736802899292	0.572263197100707	0	14	4	0	1
29	1	615.099999994039	2	1	0.547978554490482	0.452021445509517	1	15	4	0	1
29	1	624.600000023841	2	1	0.553722211518403	0.446277788481596	1	16	4	0	1
29	0	555.80000001192	2	0	0.42697428838124	0.573025711618759	0	17	4	0	1
29	1	580.599999994039	2	1	0.526139058400463	0.473860941599536	1	18	4	0	1
29	1	593.5	2	1	0.532883636236392	0.467116363763607	1	19	4	0	1
29	1	709.5	2	1	0.5111263856673	0.488873614332699	1	20	4	0	1
29	0	701.5	2	0	0.466075523861481	0.533924476138518	0	21	4	0	1
29	0	652.90000000596	2	0	0.431215704915261	0.568784295084738	0	22	4	0	1
29	1	696.90000000596	2	1	0.572125920900201	0.427874079099798	1	23	4	0	1
29	1	575.200000017881	2	1	0.545767568027769	0.45423243197223	1	24	4	0	1
29	0	475.30000001192	2	0	0.437050545298072	0.562949454701927	0	25	4	0	1
29	0	694.299999982118	3	0	0.180815363225376	0.819184636774623	1	1	5	1	0
29	0	503.80000001192	3	1	0.835655697033136	0.164344302966863	0	2	5	1	1
29	1	433.199999988079	3	0	0.160288240329636	0.839711759670363	1	3	5	1	1
29	1	457.30000001192	3	0	0.194629527186915	0.805370472813084	1	4	5	1	1
29	0	398.899999976158	3	1	0.862001701904718	0.137998298095281	0	5	5	1	1
29	1	400.099999994039	3	0	0.121030904501072	0.878969095498927	1	6	5	1	1
29	1	421.30000001192	3	0	0.176791223904649	0.82320877609535	1	7	5	1	1
29	0	450.40000000596	3	1	0.856557273941031	0.143442726058968	0	8	5	1	1
29	1	465.599999994039	3	0	0.195059213095869	0.80494078690413	1	9	5	1	1
29	1	376.90000000596	3	0	0.149076815610843	0.850923184389156	1	10	5	1	1
29	1	558.299999982118	3	0	0.185711112003468	0.814288887996531	1	11	5	1	1
29	0	377.90000000596	3	1	0.8355685042818	0.164431495718199	0	12	5	1	1
29	1	406.099999994039	3	0	0.17681430899904	0.82318569100096	1	13	5	1	1
29	0	291.90000000596	3	1	0.876550352011337	0.123449647988662	0	14	5	1	1
29	0	393.899999976158	3	1	0.863098349899855	0.136901650100144	0	15	5	1	1
29	1	450.30000001192	3	0	0.18988686452611	0.810113135473889	1	16	5	1	1
29	0	321.599999994039	3	1	0.870866765549797	0.129133234450202	0	17	5	1	1
29	0	538.199999988079	3	1	0.834118950974004	0.165881049025995	0	18	5	1	1
29	0	432.599999994039	3	1	0.879256720038746	0.120743279961253	0	19	5	1	1
29	0	349	3	1	0.837633771034448	0.162366228965551	0	20	5	1	1
29	1	381.5	3	0	0.173959790816453	0.826040209183546	1	21	5	1	1
29	1	371	3	0	0.173487868306602	0.826512131693397	1	22	5	1	1
29	0	316.700000017881	3	1	0.80381143613497	0.196188563865029	0	23	5	1	1
29	0	343	3	1	0.851866445649027	0.148133554350972	0	24	5	1	1
29	0	417.5	3	1	0.873471853838833	0.126528146161166	0	25	5	1	1
29	0	694.599999994039	3	1	0.86777390155272	0.132226098447279	1	1	6	0	0
29	0	404	3	0	0.179818199562518	0.820181800437481	0	2	6	0	1
29	1	409.40000000596	3	1	0.879357229265471	0.120642770734528	1	3	6	0	1
29	1	430.80000001192	3	1	0.878309867085945	0.121690132914054	1	4	6	0	1
29	0	414.700000017881	3	0	0.160402665368728	0.839597334631272	0	5	6	0	1
29	1	396.099999994039	3	1	0.81723102856387	0.182768971436129	1	6	6	0	1
29	1	434	3	1	0.815584216404928	0.184415783595071	1	7	6	0	1
29	1	435.30000001192	3	1	0.864754751093302	0.135245248906697	1	8	6	0	1
29	0	371.30000001192	3	1	0.837861905386893	0.162138094613106	1	9	6	0	0
29	0	506.80000001192	3	0	0.162858831853774	0.837141168146225	0	10	6	0	1
29	1	422.899999976158	3	1	0.811909302103147	0.188090697896852	1	11	6	0	1
29	0	367.90000000596	3	0	0.155810574204915	0.844189425795084	0	12	6	0	1
29	0	363.80000001192	3	1	0.845930745843544	0.154069254156455	1	13	6	0	0
29	1	380.700000017881	3	0	0.186588108147111	0.813411891852888	0	14	6	0	0
29	1	396	3	1	0.856811837633567	0.143188162366432	1	15	6	0	1
29	0	434.40000000596	3	0	0.174644964263668	0.825355035736331	0	16	6	0	1
29	0	466.699999988079	3	1	0.814719516785599	0.1852804832144	1	17	6	0	0
29	1	450.399999976158	3	0	0.187387851118618	0.812612148881381	0	18	6	0	0
29	1	627.5	3	1	0.815553174154259	0.18444682584574	1	19	6	0	1
29	0	471.5	3	0	0.165372283652959	0.83462771634704	0	20	6	0	1
29	0	436.399999976158	3	0	0.131457829638348	0.868542170361651	0	21	6	0	1
29	1	375.299999982118	3	0	0.152091854332725	0.847908145667274	0	22	6	0	0
29	0	370.299999982118	3	1	0.843819091846724	0.156180908153276	1	23	6	0	0
29	0	451.30000001192	3	0	0.163076890830688	0.836923109169311	0	24	6	0	1
29	0	413.599999994039	3	0	0.151800714637686	0.848199285362313	0	25	6	0	1
29	0	432.199999988079	2	0	0.436236672473033	0.563763327526966	1	1	7	1	0
29	1	836.599999994039	2	0	0.444426698209982	0.555573301790017	1	2	7	1	1
29	1	715.099999994039	2	0	0.484984127960277	0.515015872039722	1	3	7	1	1
29	1	564.90000000596	2	1	0.561451046671184	0.438548953328815	0	4	7	1	0
29	0	721.099999994039	2	0	0.447876408784952	0.552123591215048	1	5	7	1	0
29	0	471.40000000596	2	0	0.442640798907369	0.55735920109263	1	6	7	1	0
29	1	485.40000000596	2	1	0.550873887075126	0.449126112924873	0	7	7	1	0
29	1	503.599999994039	2	1	0.560154439612273	0.439845560387726	0	8	7	1	0
29	1	937.90000000596	2	0	0.466804752031333	0.533195247968666	1	9	7	1	1
29	0	596.599999994039	2	0	0.472949695467358	0.527050304532641	1	10	7	1	0
29	1	581.90000000596	2	0	0.455989993200209	0.54401000679979	1	11	7	1	1
29	0	618.80000001192	2	1	0.511860103594484	0.488139896405515	0	12	7	1	1
29	1	566.40000000596	2	1	0.574885346646617	0.425114653353382	0	13	7	1	0
29	0	511.599999994039	2	1	0.54496329567167	0.455036704328329	0	14	7	1	1
29	1	416.80000001192	2	0	0.436710122422539	0.563289877577461	1	15	7	1	1
29	0	874.599999994039	2	0	0.489540904913841	0.510459095086158	1	16	7	1	0
29	0	463.199999988079	2	1	0.541452879285389	0.45854712071461	0	17	7	1	1
29	0	486.90000000596	2	1	0.530556089725357	0.469443910274642	0	18	7	1	1
29	1	411.699999988079	2	0	0.424339942057056	0.575660057942943	1	19	7	1	1
29	0	422.90000000596	2	1	0.535957986086753	0.464042013913246	0	20	7	1	1
29	1	571.5	2	0	0.488331858081913	0.511668141918086	1	21	7	1	1
29	1	652.700000017881	2	1	0.542085954512764	0.457914045487235	0	22	7	1	0
29	0	528	2	1	0.539066926279071	0.460933073720928	0	23	7	1	1
29	1	330.899999976158	2	1	0.566036521531361	0.433963478468638	0	24	7	1	0
29	0	363.099999994039	2	1	0.539692314316212	0.460307685683787	0	25	7	1	1
29	1	582.5	1	0	0.46824220695765	0.531757793042349	0	1	8	0	0
29	1	897.700000017881	1	0	0.491433633195885	0.508566366804114	0	2	8	0	0
29	0	379.199999988079	1	0	0.49050789472971	0.509492105270289	0	3	8	0	1
29	1	325.40000000596	1	0	0.473804575544022	0.526195424455977	0	4	8	0	0
29	0	557.80000001192	1	1	0.515567898614932	0.484432101385067	1	5	8	0	0
29	0	334.90000000596	1	1	0.555109254629971	0.444890745370028	1	6	8	0	0
29	0	369.700000017881	1	1	0.534955615338892	0.465044384661107	1	7	8	0	0
29	0	298.299999982118	1	0	0.430390586806131	0.569609413193868	0	8	8	0	1
29	0	468.199999988079	1	1	0.575675637602839	0.42432436239716	1	9	8	0	0
29	1	376.099999994039	1	0	0.423335689866724	0.576664310133275	0	10	8	0	0
29	1	381.099999994039	1	0	0.432401133353719	0.56759886664628	0	11	8	0	0
29	1	439	1	0	0.47627788160307	0.523722118396929	0	12	8	0	0
29	0	282.90000000596	1	1	0.561911919923678	0.438088080076321	1	13	8	0	0
29	1	409.40000000596	1	0	0.488090235438916	0.511909764561084	0	14	8	0	0
29	1	572.5	1	1	0.503333426316827	0.496666573683172	1	15	8	0	1
29	1	441.90000000596	1	0	0.480573025443044	0.519426974556955	0	16	8	0	0
29	0	400.199999988079	1	1	0.559459299639962	0.440540700360037	1	17	8	0	0
29	0	427	1	1	0.56533470803907	0.434665291960929	1	18	8	0	0
29	0	394.699999988079	1	1	0.577231832461453	0.422768167538546	1	19	8	0	0
29	0	496.5	1	0	0.44132186301237	0.558678136987629	0	20	8	0	1
29	0	791.100000023841	1	1	0.535919358802488	0.464080641197512	1	21	8	0	0
29	0	389.80000001192	1	1	0.576143901548777	0.423856098451222	1	22	8	0	0
29	1	362.099999994039	1	0	0.460925235885298	0.539074764114701	0	23	8	0	0
29	1	475.30000001192	1	1	0.523753769299919	0.47624623070008	1	24	8	0	1
29	1	609.099999994039	1	0	0.451529461520609	0.54847053847939	0	25	8	0	0
29	0	327.80000001192	3	1	0.876921519677142	0.123078480322857	1	1	9	0	0
29	1	857.599999994039	3	1	0.864066206360435	0.135933793639564	1	2	9	0	1
29	1	662.80000001192	3	0	0.170310722435172	0.829689277564827	0	3	9	0	0
29	0	347.099999994039	3	1	0.879381948261292	0.120618051738707	1	4	9	0	0
29	0	472.30000001192	3	0	0.156641799648625	0.843358200351374	0	5	9	0	1
29	1	598.099999994039	3	1	0.810426985401543	0.189573014598456	1	6	9	0	1
29	1	391.100000023841	3	0	0.179933804714356	0.820066195285644	0	7	9	0	0
29	1	489.699999988079	3	0	0.149090697896223	0.850909302103776	0	8	9	0	0
29	1	391.299999982118	3	1	0.839048543018939	0.16095145698106	1	9	9	0	1
29	0	346.799999982118	3	1	0.851671871893764	0.148328128106235	1	10	9	0	0
29	0	341.599999994039	3	1	0.872359945704248	0.127640054295751	1	11	9	0	0
29	1	649.5	3	0	0.143155107825928	0.856844892174072	0	12	9	0	0
29	0	352.30000001192	3	0	0.178059645458096	0.821940354541903	0	13	9	0	1
29	1	615.199999988079	3	1	0.801999578092459	0.19800042190754	1	14	9	0	1
29	1	389.100000023841	3	0	0.17147097688534	0.828529023114659	0	15	9	0	0
29	0	343.099999994039	3	0	0.134919543766489	0.86508045623351	0	16	9	0	1
29	0	348.399999976158	3	0	0.134031149444202	0.865968850555797	0	17	9	0	1
29	0	388.699999988079	3	1	0.847749601437862	0.152250398562137	1	18	9	0	0
29	1	348.80000001192	3	1	0.872987769754531	0.127012230245468	1	19	9	0	1
29	1	897.599999994039	3	0	0.147062350804144	0.852937649195855	0	20	9	0	0
29	1	404.099999994039	3	1	0.818306641783927	0.181693358216072	1	21	9	0	1
29	1	364.699999988079	3	0	0.126874066221017	0.873125933778982	0	22	9	0	0
29	1	394.599999994039	3	0	0.137037768405909	0.86296223159409	0	23	9	0	0
29	1	441	3	1	0.834261267738282	0.165738732261717	1	24	9	0	1
29	1	377.799999982118	3	1	0.850243599492989	0.14975640050701	1	25	9	0	1
29	0	485.099999994039	2	0	0.431299680622672	0.568700319377328	1	1	10	1	0
29	1	742.299999982118	2	0	0.456818819472274	0.543181180527725	1	2	10	1	1
29	1	994.200000017881	2	1	0.510521578204665	0.489478421795334	0	3	10	1	0
29	1	633.100000023841	2	1	0.505257389718942	0.494742610281057	0	4	10	1	0
29	0	443.30000001192	2	1	0.54874146142982	0.451258538570179	0	5	10	1	1
29	1	406.80000001192	2	0	0.470875760685731	0.529124239314268	1	6	10	1	1
29	0	342.80000001192	2	1	0.53580294890878	0.464197051091219	0	7	10	1	1
29	1	392.599999994039	2	0	0.461768811567126	0.538231188432873	1	8	10	1	1
29	1	367.5	2	0	0.465218853039545	0.534781146960454	1	9	10	1	1
29	1	367.299999982118	2	0	0.482692173627318	0.517307826372681	1	10	10	1	1
29	1	384.5	2	1	0.505143025232703	0.494856974767296	0	11	10	1	0
29	1	390.90000000596	2	0	0.495504256839229	0.50449574316077	1	12	10	1	1
29	0	523.699999988079	2	1	0.55189049988592	0.448109500114079	0	13	10	1	1
29	0	618.199999988079	2	1	0.553748884068133	0.446251115931866	0	14	10	1	1
29	1	535	2	1	0.512401191382186	0.487598808617813	0	15	10	1	0
29	1	647.099999994039	2	1	0.54061879208933	0.459381207910669	0	16	10	1	0
29	0	524.30000001192	2	1	0.519797531107845	0.480202468892154	0	17	10	1	1
29	0	351.699999988079	2	1	0.548990689605376	0.451009310394623	0	18	10	1	1
29	0	308.5	2	0	0.480967649241199	0.5190323507588	1	19	10	1	0
29	1	321.299999982118	2	1	0.546183355304651	0.453816644695349	0	20	10	1	0
29	1	324	2	1	0.522746497098134	0.477253502901865	0	21	10	1	0
29	1	792.90000000596	2	0	0.469187100172124	0.530812899827875	1	22	10	1	1
29	1	322	2	0	0.469842083857104	0.530157916142895	1	23	10	1	1
29	1	295.199999988079	2	0	0.487672022379171	0.512327977620828	1	24	10	1	1
29	1	338.90000000596	2	0	0.447492838503135	0.552507161496864	1	25	10	1	1
29	0	294	3	1	0.811375944515517	0.188624055484482	0	1	11	1	1
29	1	395.80000001192	3	0	0.152991372872643	0.847008627127356	1	2	11	1	1
29	1	447.799999982118	3	0	0.181930861914335	0.818069138085665	1	3	11	1	1
29	0	852.099999994039	3	1	0.869798607263378	0.130201392736621	0	4	11	1	1
29	0	423	3	1	0.838001006876097	0.161998993123902	0	5	11	1	1
29	1	345.700000017881	3	0	0.192278282699902	0.807721717300097	1	6	11	1	1
29	1	357.299999982118	3	1	0.852642442831537	0.147357557168462	0	7	11	1	0
29	0	327.799999982118	3	1	0.86543991678724	0.134560083212759	0	8	11	1	1
29	1	388.40000000596	3	0	0.153366995597436	0.846633004402563	1	9	11	1	1
29	1	421.599999994039	3	0	0.13577153719351	0.864228462806489	1	10	11	1	1
29	0	383.099999994039	3	1	0.854879283574847	0.145120716425152	0	11	11	1	1
29	0	409.90000000596	3	1	0.801090084262196	0.198909915737803	0	12	11	1	1
29	0	459.899999976158	3	0	0.172734556352018	0.827265443647981	1	13	11	1	0
29	1	368.40000000596	3	0	0.145677861928671	0.854322138071328	1	14	11	1	1
29	0	337.200000017881	3	1	0.873053036450598	0.126946963549401	0	15	11	1	1
29	0	286.099999994039	3	1	0.855975189542075	0.144024810457924	0	16	11	1	1
29	0	289	3	1	0.832889892603947	0.167110107396052	0	17	11	1	1
29	0	337.599999994039	3	1	0.808771074048805	0.191228925951194	0	18	11	1	1
29	1	425.40000000596	3	0	0.156435117785836	0.843564882214163	1	19	11	1	1
29	1	490.80000001192	3	0	0.124974979438894	0.875025020561105	1	20	11	1	1
29	0	464.299999982118	3	0	0.19742843198492	0.80257156801508	1	21	11	1	0
29	1	289.099999994039	3	0	0.194210673173621	0.805789326826378	1	22	11	1	1
29	1	369.40000000596	3	0	0.129826412417167	0.870173587582832	1	23	11	1	1
29	0	325.80000001192	3	1	0.817129342736523	0.182870657263476	0	24	11	1	1
29	0	310	3	1	0.85450095682502	0.145499043174979	0	25	11	1	1
29	1	551.5	2	0	0.439497153768719	0.56050284623128	0	1	12	0	0
29	1	361.90000000596	2	0	0.458529047968374	0.541470952031625	0	2	12	0	0
29	1	651.199999988079	2	0	0.422118971493482	0.577881028506517	0	3	12	0	0
29	0	310	2	0	0.498347077638745	0.501652922361254	0	4	12	0	1
29	0	272.90000000596	2	1	0.524552847850717	0.475447152149282	1	5	12	0	0
29	0	281.80000001192	2	1	0.542481863045414	0.457518136954585	1	6	12	0	0
29	1	329.40000000596	2	0	0.442777314242537	0.557222685757462	0	7	12	0	0
29	0	348.099999994039	2	1	0.568145495243755	0.431854504756244	1	8	12	0	0
29	0	295.30000001192	2	1	0.573713183144932	0.426286816855067	1	9	12	0	0
29	0	636.699999988079	2	0	0.437636280418173	0.562363719581826	0	10	12	0	1
29	0	375.100000023841	2	0	0.443059679056226	0.556940320943773	0	11	12	0	1
29	0	392.299999982118	2	0	0.479211814883119	0.52078818511688	0	12	12	0	1
29	0	326.90000000596	2	1	0.577900372071841	0.422099627928158	1	13	12	0	0
29	1	571.80000001192	2	1	0.526154490394445	0.473845509605554	1	14	12	0	1
29	1	575.80000001192	2	0	0.492006085388862	0.507993914611137	0	15	12	0	0
29	1	387.40000000596	2	0	0.485745290805416	0.514254709194583	0	16	12	0	0
29	1	791	2	0	0.487919635078607	0.512080364921393	0	17	12	0	0
29	0	348.399999976158	2	1	0.561706064278382	0.438293935721617	1	18	12	0	0
29	0	280.30000001192	2	1	0.505986757838698	0.494013242161301	1	19	12	0	0
29	0	436.5	2	1	0.548856890575586	0.451143109424414	1	20	12	0	0
29	0	286.299999982118	2	0	0.457294683164255	0.542705316835744	0	21	12	0	1
29	0	337.40000000596	2	1	0.507312421664608	0.492687578335391	1	22	12	0	0
29	1	416.099999994039	2	0	0.457085085757672	0.542914914242327	0	23	12	0	0
29	0	398.40000000596	2	1	0.531631126588076	0.468368873411923	1	24	12	0	0
29	0	457.599999994039	2	1	0.506988697267524	0.493011302732475	1	25	12	0	0
29	0	806	4	1	0.857110803834823	0.142889196165176	0	1	13	1	1
29	1	544.30000001192	4	0	0.180742558089883	0.819257441910116	1	2	13	1	1
29	1	361.30000001192	4	0	0.133197501845748	0.866802498154251	1	3	13	1	1
29	1	263.699999988079	4	0	0.127846126007038	0.872153873992961	1	4	13	1	1
29	0	355	4	1	0.867795848094782	0.132204151905218	0	5	13	1	1
29	0	358.80000001192	4	1	0.807459400527739	0.19254059947226	0	6	13	1	1
29	1	330.599999994039	4	0	0.183933773179604	0.816066226820395	1	7	13	1	1
29	1	318.099999994039	4	0	0.189164133299363	0.810835866700637	1	8	13	1	1
29	1	324.5	4	0	0.154795584627033	0.845204415372966	1	9	13	1	1
29	1	277.5	4	0	0.120599867846026	0.879400132153973	1	10	13	1	1
29	0	387.200000017881	4	1	0.866654081286391	0.133345918713608	0	11	13	1	1
29	1	296.40000000596	4	0	0.132829900345519	0.86717009965448	1	12	13	1	1
29	0	311.199999988079	4	1	0.848037246688785	0.151962753311214	0	13	13	1	1
29	0	403.899999976158	4	1	0.864824681273661	0.135175318726339	0	14	13	1	1
29	1	310.299999982118	4	0	0.136139224969824	0.863860775030175	1	15	13	1	1
29	1	400	4	0	0.181626360188391	0.818373639811608	1	16	13	1	1
29	0	328.30000001192	4	1	0.862813761218042	0.137186238781958	0	17	13	1	1
29	1	448.700000017881	4	0	0.187492197595532	0.812507802404467	1	18	13	1	1
29	0	259.30000001192	4	1	0.865628555304495	0.134371444695504	0	19	13	1	1
29	0	327.5	4	1	0.820252859786317	0.179747140213682	0	20	13	1	1
29	1	290.099999994039	4	0	0.199856685894645	0.800143314105354	1	21	13	1	1
29	0	372.099999994039	4	1	0.801174981464778	0.198825018535221	0	22	13	1	1
29	0	468.700000017881	4	1	0.831609693520988	0.168390306479011	0	23	13	1	1
29	1	311.699999988079	4	0	0.157339630782471	0.842660369217528	1	24	13	1	1
29	0	323.699999988079	4	1	0.879246415488402	0.120753584511597	0	25	13	1	1
29	1	339	4	1	0.862942295765796	0.137057704234203	1	1	14	0	1
29	0	371.30000001192	4	0	0.124994889149246	0.875005110850753	0	2	14	0	1
29	1	355.90000000596	4	1	0.828056703781755	0.171943296218244	1	3	14	0	1
29	0	305.599999994039	4	0	0.131942238212342	0.868057761787657	0	4	14	0	1
29	0	350.5	4	0	0.155622282550157	0.844377717449842	0	5	14	0	1
29	1	323.099999994039	4	1	0.835350963131856	0.164649036868143	1	6	14	0	1
29	0	357.200000017881	4	0	0.129070588271845	0.870929411728154	0	7	14	0	1
29	1	293.799999982118	4	1	0.821161805975546	0.178838194024453	1	8	14	0	1
29	0	383.899999976158	4	0	0.141269894638246	0.858730105361754	0	9	14	0	1
29	0	408.099999994039	4	0	0.167075477280261	0.832924522719738	0	10	14	0	1
29	1	368.100000023841	4	1	0.840367377534409	0.15963262246559	1	11	14	0	1
29	1	357.200000017881	4	1	0.833758377863282	0.166241622136717	1	12	14	0	1
29	0	339.5	4	0	0.170572512634006	0.829427487365993	0	13	14	0	1
29	1	410.699999988079	4	1	0.805709799512813	0.194290200487186	1	14	14	0	1
29	1	359	4	1	0.828795060504457	0.171204939495542	1	15	14	0	1
29	0	364.100000023841	4	0	0.165238951393698	0.834761048606302	0	16	14	0	1
29	0	395.30000001192	4	0	0.158334405060847	0.841665594939152	0	17	14	0	1
29	1	353.700000017881	4	1	0.808127688781015	0.191872311218984	1	18	14	0	1
29	0	361.200000017881	4	0	0.145548936777081	0.854451063222918	0	19	14	0	1
29	0	370.199999988079	4	0	0.185439792672969	0.81456020732703	0	20	14	0	1
29	1	323.40000000596	4	1	0.837397975587207	0.162602024412792	1	21	14	0	1
29	0	369.599999994039	4	0	0.167041198622369	0.83295880137763	0	22	14	0	1
29	1	392.90000000596	4	1	0.855243466566798	0.144756533433201	1	23	14	0	1
29	1	429.40000000596	4	1	0.817839853667053	0.182160146332946	1	24	14	0	1
29	0	366.399999976158	4	0	0.131155843199194	0.868844156800805	0	25	14	0	1
29	0	712.099999994039	1	1	0.571266494719261	0.428733505280738	0	1	15	1	1
29	0	656.599999994039	1	1	0.553383155112991	0.446616844887008	0	2	15	1	1
29	1	631.90000000596	1	0	0.484899458939251	0.515100541060748	1	3	15	1	1
29	0	566	1	0	0.47537982777835	0.524620172221649	1	4	15	1	0
29	1	581.200000017881	1	0	0.431674941620826	0.568325058379173	1	5	15	1	1
29	0	505.599999994039	1	1	0.548533707229308	0.451466292770691	0	6	15	1	1
29	0	595.699999988079	1	1	0.547498084676479	0.45250191532352	0	7	15	1	1
29	1	575.899999976158	1	0	0.461148858633476	0.538851141366523	1	8	15	1	1
29	1	793.599999994039	1	1	0.504695836131807	0.495304163868192	0	9	15	1	0
29	0	565.599999994039	1	1	0.544926118977717	0.455073881022282	0	10	15	1	1
29	1	760.80000001192	1	0	0.43580111214275	0.564198887857249	1	11	15	1	1
29	1	956.100000023841	1	0	0.486152338347837	0.513847661652162	1	12	15	1	1
29	0	506.799999982118	1	1	0.563101827234904	0.436898172765095	0	13	15	1	1
29	1	482	1	0	0.447426913288485	0.552573086711514	1	14	15	1	1
29	0	840.599999994039	1	1	0.51378939338162	0.486210606618379	0	15	15	1	1
29	1	648.80000001192	1	0	0.438773386775201	0.561226613224798	1	16	15	1	1
29	0	611.799999982118	1	1	0.568803871129532	0.431196128870467	0	17	15	1	1
29	0	786.699999988079	1	0	0.49894534217652	0.501054657823479	1	18	15	1	0
29	1	540	1	0	0.427778293804702	0.572221706195297	1	19	15	1	1
29	0	453.90000000596	1	1	0.570251579454283	0.429748420545716	0	20	15	1	1
29	1	490.5	1	0	0.446200653760759	0.55379934623924	1	21	15	1	1
29	0	467.199999988079	1	1	0.542672779395411	0.457327220604588	0	22	15	1	1
29	1	511.90000000596	1	1	0.503733499670642	0.496266500329357	0	23	15	1	0
29	0	424.30000001192	1	1	0.557777645424468	0.442222354575532	0	24	15	1	1
29	1	411.5	1	0	0.438214946141378	0.561785053858621	1	25	15	1	1
29	0	756.599999994039	1	0	0.493705350472024	0.506294649527975	0	1	16	0	1
29	0	532	1	1	0.537163389183738	0.462836610816261	1	2	16	0	0
29	1	609	1	0	0.458953970728913	0.541046029271086	0	3	16	0	0
29	1	642.699999988079	1	1	0.532472051889958	0.467527948110041	1	4	16	0	1
29	0	493.700000017881	1	0	0.474301716929471	0.525698283070528	0	5	16	0	1
29	0	438.40000000596	1	1	0.503523716171032	0.496476283828967	1	6	16	0	0
29	1	440.40000000596	1	0	0.476129860502225	0.523870139497774	0	7	16	0	0
29	1	391.5	1	0	0.424879405173467	0.575120594826532	0	8	16	0	0
29	0	453	1	1	0.579364502503245	0.420635497496754	1	9	16	0	0
29	1	474.099999994039	1	0	0.421114177181526	0.578885822818473	0	10	16	0	0
29	1	486.80000001192	1	0	0.423992814519631	0.576007185480368	0	11	16	0	0
29	0	354.600000023841	1	0	0.48328976414409	0.516710235855909	0	12	16	0	1
29	0	377.5	1	1	0.551892493974614	0.448107506025385	1	13	16	0	0
29	1	450	1	0	0.470449007075408	0.529550992924591	0	14	16	0	0
29	0	286.5	1	0	0.472105261156851	0.527894738843148	0	15	16	0	1
29	0	533.199999988079	1	1	0.504083013935559	0.49591698606444	1	16	16	0	0
29	1	495.40000000596	1	1	0.510317502418786	0.489682497581213	1	17	16	0	1
29	1	219.200000017881	1	1	0.514694051856876	0.485305948143123	1	18	16	0	1
29	0	469.5	1	0	0.47292824415018	0.527071755849819	0	19	16	0	1
29	1	439	1	1	0.538021602628364	0.461978397371635	1	20	16	0	1
29	1	382.599999994039	1	1	0.564823571428793	0.435176428571206	1	21	16	0	1
29	1	342.5	1	1	0.577423622646168	0.422576377353831	1	22	16	0	1
29	1	331.199999988079	1	1	0.519621725320478	0.480378274679521	1	23	16	0	1
29	1	367.099999994039	1	1	0.565301533713363	0.434698466286636	1	24	16	0	1
29	0	530.200000017881	1	0	0.484124241139523	0.515875758860476	0	25	16	0	1
