ID	choice	rt	condition_int	state	contrast_left	contrast_right	reward	trials	blocks	contrast	ecoperf
28	0	460	4	0	0.123581955992952	0.876418044007047	1	1	1	1	0
28	0	404.10000000149	4	1	0.828431399796272	0.171568600203727	0	2	1	1	1
28	1	392.199999995529	4	0	0.147287464397465	0.852712535602534	1	3	1	1	1
28	1	342.899999998509	4	0	0.171291405318048	0.828708594681951	1	4	1	1	1
28	0	350.399999998509	4	1	0.819015710937363	0.180984289062636	0	5	1	1	1
28	1	419	4	0	0.174845592658029	0.82515440734197	1	6	1	1	1
28	0	406.5	4	1	0.84006362033724	0.159936379662759	0	7	1	1	1
28	1	427.699999995529	4	0	0.122608739432853	0.877391260567146	1	8	1	1	1
28	1	386.799999997019	4	0	0.160806398800607	0.839193601199392	1	9	1	1	1
28	1	414.699999995529	4	0	0.195738014897997	0.804261985102002	1	10	1	1	1
28	0	354	4	1	0.817769472900103	0.182230527099896	0	11	1	1	1
28	0	423	4	1	0.825019889867468	0.174980110132531	0	12	1	1	1
28	1	423.5	4	0	0.180414501787045	0.819585498212954	1	13	1	1	1
28	1	341.20000000298	4	0	0.170316821942109	0.82968317805789	1	14	1	1	1
28	0	301.5	4	1	0.813311455651498	0.186688544348501	0	15	1	1	1
28	0	347.199999995529	4	1	0.810796696286392	0.189203303713608	0	16	1	1	1
28	1	260.30000000447	4	0	0.189682491680137	0.810317508319862	1	17	1	1	1
28	0	268.299999997019	4	1	0.850370267530733	0.149629732469266	0	18	1	1	1
28	0	312.399999998509	4	1	0.840639352719195	0.159360647280804	0	19	1	1	1
28	1	293.899999998509	4	0	0.16472458527349	0.835275414726509	1	20	1	1	1
28	1	325.5	4	0	0.121473398567561	0.878526601432438	1	21	1	1	1
28	0	281.60000000149	4	1	0.874076112755865	0.125923887244134	0	22	1	1	1
28	1	322.5	4	0	0.185163719401797	0.814836280598202	1	23	1	1	1
28	0	272	4	1	0.820398526072294	0.179601473927705	0	24	1	1	1
28	0	363.70000000298	4	1	0.813006207658691	0.186993792341308	0	25	1	1	1
28	1	374.5	3	1	0.843522540823613	0.156477459176386	1	1	2	0	1
28	1	473.40000000596	3	1	0.86143482937453	0.13856517062547	1	2	2	0	1
28	0	360.70000000298	3	0	0.146689635318872	0.853310364681127	0	3	2	0	1
28	0	369.70000000298	3	0	0.150296058097956	0.849703941902043	0	4	2	0	1
28	0	367.399999998509	3	0	0.184447221593229	0.815552778406771	0	5	2	0	1
28	0	396.5	3	0	0.195667260770483	0.804332739229516	0	6	2	0	1
28	0	309	3	0	0.137038956084284	0.862961043915715	0	7	2	0	1
28	1	385.799999997019	3	1	0.847391684763702	0.152608315236297	1	8	2	0	1
28	1	365.10000000149	3	1	0.857951031636944	0.142048968363055	1	9	2	0	1
28	1	365.90000000596	3	1	0.822594779975995	0.177405220024004	1	10	2	0	1
28	1	349.5	3	1	0.813602884811677	0.186397115188322	1	11	2	0	1
28	0	399.5	3	0	0.121421455415926	0.878578544584073	0	12	2	0	1
28	1	333.40000000596	3	1	0.817511483095941	0.182488516904058	1	13	2	0	1
28	0	318.20000000298	3	0	0.134138403599379	0.86586159640062	0	14	2	0	1
28	1	362.899999998509	3	1	0.811783382315733	0.188216617684266	1	15	2	0	1
28	1	302.799999997019	3	1	0.869473989861407	0.130526010138592	1	16	2	0	1
28	0	374.799999997019	3	0	0.127327927819943	0.872672072180056	0	17	2	0	1
28	1	310.199999995529	3	1	0.805759266440222	0.194240733559777	1	18	2	0	1
28	1	288.5	3	0	0.151575807335912	0.848424192664087	0	19	2	0	0
28	1	362	3	1	0.82020429818898	0.179795701811019	1	20	2	0	1
28	1	327.599999994039	3	1	0.85706049513921	0.142939504860789	1	21	2	0	1
28	0	404.799999997019	3	0	0.191007777044033	0.808992222955966	0	22	2	0	1
28	1	341.70000000298	3	1	0.838623172574202	0.161376827425797	1	23	2	0	1
28	0	365.299999997019	3	0	0.188428490249404	0.811571509750595	0	24	2	0	1
28	1	285	3	0	0.132180009171284	0.867819990828715	0	25	2	0	0
28	0	374.10000000149	1	0	0.440915440770001	0.559084559229998	1	1	3	1	0
28	1	807.299999997019	1	0	0.465841121155067	0.534158878844933	1	2	3	1	1
28	1	516	1	1	0.546680138306228	0.453319861693771	0	3	3	1	0
28	1	540.399999998509	1	0	0.435296489862333	0.564703510137666	1	4	3	1	1
28	1	365.60000000149	1	0	0.461799460661268	0.538200539338731	1	5	3	1	1
28	1	391.20000000298	1	0	0.476377887775944	0.523622112224055	1	6	3	1	1
28	0	569.70000000298	1	1	0.538627870841595	0.461372129158404	0	7	3	1	1
28	1	390.10000000149	1	0	0.431774484941439	0.56822551505856	1	8	3	1	1
28	1	464.5	1	1	0.52039492252657	0.479605077473429	0	9	3	1	0
28	1	532.20000000298	1	1	0.507756552555978	0.492243447444021	0	10	3	1	0
28	1	319.699999995529	1	0	0.432580675550792	0.567419324449207	1	11	3	1	1
28	1	382.699999995529	1	0	0.447360919979139	0.55263908002086	1	12	3	1	1
28	1	343.70000000298	1	1	0.565357271988262	0.434642728011737	0	13	3	1	0
28	0	552.60000000149	1	1	0.538538169785247	0.461461830214752	0	14	3	1	1
28	1	377.5	1	0	0.472250347631918	0.527749652368081	1	15	3	1	1
28	0	357.099999994039	1	1	0.552919992999147	0.447080007000852	0	16	3	1	1
28	1	402.899999998509	1	0	0.475109059743428	0.524890940256571	1	17	3	1	1
28	1	387.60000000149	1	0	0.451985745406117	0.548014254593882	1	18	3	1	1
28	0	420.399999998509	1	1	0.574984104407703	0.425015895592296	0	19	3	1	1
28	0	371	1	1	0.568801663723182	0.431198336276817	0	20	3	1	1
28	1	333	1	0	0.499491050747401	0.500508949252598	1	21	3	1	1
28	0	266	1	1	0.554828229435676	0.445171770564323	0	22	3	1	1
28	1	481.599999994039	1	0	0.468058078620432	0.531941921379567	1	23	3	1	1
28	1	318	1	1	0.522361607000475	0.477638392999525	0	24	3	1	0
28	1	504.399999998509	1	1	0.50864916958026	0.491350830419739	0	25	3	1	0
28	0	462.299999997019	4	1	0.81614178169926	0.183858218300739	1	1	4	0	0
28	1	407.60000000149	4	1	0.831175108913784	0.168824891086215	1	2	4	0	1
28	0	404.30000000447	4	0	0.12314274171067	0.876857258289329	0	3	4	0	1
28	1	343.10000000149	4	1	0.804009717892745	0.195990282107254	1	4	4	0	1
28	0	379.199999995529	4	0	0.181129243570518	0.818870756429481	0	5	4	0	1
28	1	365.099999994039	4	1	0.806400316774755	0.193599683225244	1	6	4	0	1
28	1	343.60000000149	4	1	0.854595961322098	0.145404038677901	1	7	4	0	1
28	0	436.20000000298	4	0	0.17706521080191	0.822934789198089	0	8	4	0	1
28	1	351.90000000596	4	0	0.189114253707917	0.810885746292082	0	9	4	0	0
28	1	333.20000000298	4	1	0.804276155461341	0.195723844538658	1	10	4	0	1
28	0	359.20000000298	4	0	0.135313223657083	0.864686776342916	0	11	4	0	1
28	1	343.10000000149	4	1	0.82189796904995	0.178102030950049	1	12	4	0	1
28	0	399.299999997019	4	0	0.141486579918375	0.858513420081624	0	13	4	0	1
28	0	365.10000000149	4	0	0.19296929282419	0.807030707175809	0	14	4	0	1
28	0	384.70000000298	4	0	0.134242482216009	0.86575751778399	0	15	4	0	1
28	0	413.5	4	0	0.124788892688291	0.875211107311708	0	16	4	0	1
28	1	375.30000000447	4	1	0.804260284281686	0.195739715718313	1	17	4	0	1
28	1	425	4	1	0.819835665134074	0.180164334865925	1	18	4	0	1
28	1	404.199999995529	4	1	0.865413226021044	0.134586773978955	1	19	4	0	1
28	1	336.70000000298	4	1	0.803481100985102	0.196518899014898	1	20	4	0	1
28	0	412	4	0	0.138143910187957	0.861856089812042	0	21	4	0	1
28	0	305.699999995529	4	0	0.195094418348046	0.804905581651953	0	22	4	0	1
28	1	332.5	4	1	0.828973789947708	0.171026210052291	1	23	4	0	1
28	1	312.399999998509	4	1	0.848473980125232	0.151526019874767	1	24	4	0	1
28	0	380.699999995529	4	0	0.131891745390513	0.868108254609486	0	25	4	0	1
28	1	441.10000000149	3	1	0.835997335054793	0.164002664945206	0	1	5	1	0
28	0	376	3	1	0.856733456240842	0.143266543759157	0	2	5	1	1
28	1	292.399999998509	3	0	0.194130822850067	0.805869177149932	1	3	5	1	1
28	1	293.799999997019	3	0	0.131061043585494	0.868938956414505	1	4	5	1	1
28	0	345.40000000596	3	1	0.859167265408828	0.140832734591171	0	5	5	1	1
28	1	304	3	0	0.13324805931485	0.866751940685149	1	6	5	1	1
28	0	340	3	1	0.833097953753386	0.166902046246613	0	7	5	1	1
28	0	336.60000000149	3	1	0.835261184697855	0.164738815302144	0	8	5	1	1
28	0	319.30000000447	3	1	0.855193916918209	0.14480608308179	0	9	5	1	1
28	0	396.899999998509	3	1	0.867337494760529	0.13266250523947	0	10	5	1	1
28	1	483.30000000447	3	0	0.183689123845275	0.816310876154724	1	11	5	1	1
28	1	355.10000000149	3	0	0.133240701813778	0.866759298186221	1	12	5	1	1
28	1	354.90000000596	3	0	0.13982095595417	0.860179044045829	1	13	5	1	1
28	0	389.20000000298	3	1	0.867056157725159	0.13294384227484	0	14	5	1	1
28	0	361.10000000149	3	1	0.8686322612465	0.131367738753499	0	15	5	1	1
28	1	380.299999997019	3	0	0.148260434545391	0.851739565454608	1	16	5	1	1
28	1	476.599999994039	3	1	0.844355440591282	0.155644559408717	0	17	5	1	0
28	1	340.5	3	0	0.168149197607227	0.831850802392772	1	18	5	1	1
28	1	343.5	3	0	0.128493624211092	0.871506375788907	1	19	5	1	1
28	1	343.299999997019	3	0	0.12131802100831	0.878681978991689	1	20	5	1	1
28	1	327.399999998509	3	0	0.128323459838407	0.871676540161592	1	21	5	1	1
28	0	464.799999997019	3	1	0.805388079272929	0.19461192072707	0	22	5	1	1
28	1	334	3	0	0.188952186973016	0.811047813026983	1	23	5	1	1
28	1	363.399999998509	3	0	0.130265015857469	0.86973498414253	1	24	5	1	1
28	0	454.60000000149	3	1	0.831344734139473	0.168655265860526	0	25	5	1	1
28	1	706.199999995529	2	1	0.546714062229485	0.453285937770514	1	1	6	0	1
28	1	550.70000000298	2	1	0.54002009969815	0.459979900301849	1	2	6	0	1
28	0	669.799999997019	2	1	0.500803423821707	0.499196576178292	1	3	6	0	0
28	0	671	2	0	0.421366887348393	0.578633112651606	0	4	6	0	1
28	0	477	2	0	0.469637924138594	0.530362075861405	0	5	6	0	1
28	0	481.5	2	0	0.489728100510791	0.510271899489208	0	6	6	0	1
28	0	456.60000000149	2	0	0.457196743150936	0.542803256849063	0	7	6	0	1
28	0	504.20000000298	2	1	0.548503353114278	0.451496646885721	1	8	6	0	0
28	0	447	2	0	0.468135075205113	0.531864924794886	0	9	6	0	1
28	1	714.099999994039	2	1	0.539031176487317	0.460968823512682	1	10	6	0	1
28	0	427.60000000149	2	0	0.48229981547955	0.51770018452045	0	11	6	0	1
28	0	406.20000000298	2	0	0.444707793767242	0.555292206232757	0	12	6	0	1
28	1	367.60000000149	2	1	0.543370189760465	0.456629810239534	1	13	6	0	1
28	0	423.20000000298	2	1	0.527779699461098	0.472220300538901	1	14	6	0	0
28	1	442.5	2	0	0.494818699258456	0.505181300741543	0	15	6	0	0
28	1	471.30000000447	2	1	0.571678994402963	0.428321005597036	1	16	6	0	1
28	0	437.399999998509	2	0	0.479398209607326	0.520601790392673	0	17	6	0	1
28	0	402.10000000149	2	0	0.460067204068662	0.539932795931337	0	18	6	0	1
28	0	608.199999995529	2	1	0.517466526394786	0.482533473605213	1	19	6	0	0
28	1	405.899999998509	2	1	0.579198649329525	0.420801350670474	1	20	6	0	1
28	1	435.20000000298	2	1	0.553620876115347	0.446379123884652	1	21	6	0	1
28	0	435.70000000298	2	0	0.46069042044867	0.539309579551329	0	22	6	0	1
28	0	391.60000000149	2	0	0.423572245940718	0.576427754059281	0	23	6	0	1
28	1	412.399999998509	2	1	0.567302211449465	0.432697788550534	1	24	6	0	1
28	1	482.5	2	1	0.548235390425194	0.451764609574805	1	25	6	0	1
28	0	416.699999995529	2	0	0.4664992995773	0.533500700422699	1	1	7	1	0
28	0	400.60000000149	2	1	0.574070109568109	0.42592989043189	0	2	7	1	1
28	0	401.299999997019	2	1	0.575372453070469	0.42462754692953	0	3	7	1	1
28	1	475.30000000447	2	0	0.439098578734941	0.560901421265058	1	4	7	1	1
28	0	418.899999998509	2	1	0.53746682866595	0.462533171334049	0	5	7	1	1
28	1	387.90000000596	2	1	0.542715718831432	0.457284281168567	0	6	7	1	0
28	0	486.299999997019	2	1	0.552591527369642	0.447408472630358	0	7	7	1	1
28	1	427.60000000149	2	0	0.461285644952357	0.538714355047642	1	8	7	1	1
28	0	699.899999998509	2	0	0.479242921537381	0.520757078462618	1	9	7	1	0
28	1	399.399999998509	2	0	0.469239536677472	0.530760463322527	1	10	7	1	1
28	0	399.399999998509	2	1	0.522481531200758	0.477518468799241	0	11	7	1	1
28	1	351.799999997019	2	1	0.509471318877669	0.49052868112233	0	12	7	1	0
28	1	335	2	0	0.488962369154312	0.511037630845687	1	13	7	1	1
28	1	379.5	2	0	0.495107490522124	0.504892509477876	1	14	7	1	1
28	0	449.5	2	1	0.575863608055309	0.42413639194469	0	15	7	1	1
28	0	356.299999997019	2	1	0.556755501889476	0.443244498110523	0	16	7	1	1
28	0	472.699999995529	2	1	0.561393036959981	0.438606963040018	0	17	7	1	1
28	0	437.899999998509	2	1	0.552217415234126	0.447782584765873	0	18	7	1	1
28	0	377.699999995529	2	1	0.56981497511354	0.430185024886459	0	19	7	1	1
28	1	384.799999997019	2	0	0.434931434084285	0.565068565915714	1	20	7	1	1
28	1	678.199999995529	2	0	0.424290075193519	0.57570992480648	1	21	7	1	1
28	1	461.5	2	0	0.486377677548043	0.513622322451956	1	22	7	1	1
28	0	465.70000000298	2	1	0.535920283017251	0.464079716982749	0	23	7	1	1
28	1	443.5	2	0	0.440857447540517	0.559142552459483	1	24	7	1	1
28	1	427.80000000447	2	0	0.43340641121047	0.566593588789529	1	25	7	1	1
28	1	630.10000000149	1	1	0.523258655485739	0.476741344514261	1	1	8	0	1
28	0	479.70000000298	1	1	0.514026721504092	0.485973278495907	1	2	8	0	0
28	0	498.299999997019	1	0	0.447442562035146	0.552557437964853	0	3	8	0	1
28	1	463.5	1	1	0.544342593805493	0.455657406194506	1	4	8	0	1
28	0	634.90000000596	1	1	0.515528792571969	0.48447120742803	1	5	8	0	0
28	0	470.399999998509	1	0	0.439194865272209	0.56080513472779	0	6	8	0	1
28	0	409.10000000149	1	0	0.422830848910715	0.577169151089284	0	7	8	0	1
28	0	429.60000000149	1	0	0.478790822336748	0.521209177663251	0	8	8	0	1
28	1	506.299999997019	1	1	0.527616767192014	0.472383232807985	1	9	8	0	1
28	1	608.5	1	1	0.501241330151682	0.498758669848317	1	10	8	0	1
28	1	442.80000000447	1	1	0.53511295770006	0.464887042299939	1	11	8	0	1
28	0	492.30000000447	1	0	0.435841486494325	0.564158513505674	0	12	8	0	1
28	1	346.70000000298	1	1	0.522844772784665	0.477155227215334	1	13	8	0	1
28	0	390.10000000149	1	0	0.431796582865767	0.568203417134232	0	14	8	0	1
28	0	446.899999998509	1	0	0.443675033129849	0.55632496687015	0	15	8	0	1
28	1	463.40000000596	1	1	0.547919940618649	0.45208005938135	1	16	8	0	1
28	0	377.60000000149	1	0	0.478472580072448	0.521527419927551	0	17	8	0	1
28	1	451.40000000596	1	1	0.567958478748803	0.432041521251196	1	18	8	0	1
28	0	455.899999998509	1	1	0.507100643695412	0.492899356304587	1	19	8	0	0
28	0	401.30000000447	1	0	0.421457164712282	0.578542835287717	0	20	8	0	1
28	0	376.299999997019	1	0	0.458843159018609	0.54115684098139	0	21	8	0	1
28	1	364.399999998509	1	1	0.577284780132236	0.422715219867763	1	22	8	0	1
28	0	464.5	1	0	0.425515523949573	0.574484476050426	0	23	8	0	1
28	1	342.60000000149	1	0	0.47695138278752	0.523048617212479	0	24	8	0	0
28	1	326.5	1	1	0.523602809165602	0.476397190834398	1	25	8	0	1
28	0	498	2	0	0.475961389646258	0.524038610353741	1	1	9	1	0
28	0	406.20000000298	2	1	0.554385314781578	0.445614685218421	0	2	9	1	1
28	0	503.10000000149	2	1	0.526366885053602	0.473633114946397	0	3	9	1	1
28	1	384.699999995529	2	0	0.468566268728856	0.531433731271143	1	4	9	1	1
28	0	373.5	2	1	0.575723965071343	0.424276034928656	0	5	9	1	1
28	0	347.699999995529	2	1	0.553258693342486	0.446741306657513	0	6	9	1	1
28	1	376.899999998509	2	0	0.496490399128572	0.503509600871427	1	7	9	1	1
28	0	450.10000000149	2	1	0.514597162608513	0.485402837391487	0	8	9	1	1
28	1	455.20000000298	2	0	0.482991705681735	0.517008294318264	1	9	9	1	1
28	0	368.10000000149	2	1	0.5440073148891	0.455992685110899	0	10	9	1	1
28	1	356.199999995529	2	0	0.439572872962197	0.560427127037802	1	11	9	1	1
28	1	405.80000000447	2	0	0.486306737898695	0.513693262101304	1	12	9	1	1
28	1	402.30000000447	2	1	0.520809961859423	0.479190038140576	0	13	9	1	0
28	0	516.60000000149	2	1	0.526544282521449	0.47345571747855	0	14	9	1	1
28	1	792	2	1	0.513684646996686	0.486315353003313	0	15	9	1	0
28	1	361	2	0	0.445263378021277	0.554736621978722	1	16	9	1	1
28	1	415.5	2	0	0.465156773761539	0.53484322623846	1	17	9	1	1
28	1	384	2	1	0.5065830977737	0.493416902226299	0	18	9	1	0
28	1	457.799999997019	2	1	0.50632409638438	0.493675903615619	0	19	9	1	0
28	0	464.399999998509	2	1	0.558950116543494	0.441049883456505	0	20	9	1	1
28	1	373.30000000447	2	0	0.432235694517214	0.567764305482785	1	21	9	1	1
28	1	398.20000000298	2	0	0.432497775423537	0.567502224576462	1	22	9	1	1
28	1	349.899999998509	2	1	0.558706326429977	0.441293673570022	0	23	9	1	0
28	1	444.10000000149	2	0	0.472650740399338	0.527349259600661	1	24	9	1	1
28	1	387.299999997019	2	0	0.47732343333891	0.522676566661089	1	25	9	1	1
28	1	487.199999995529	4	0	0.179813941324097	0.820186058675903	1	1	10	1	1
28	1	381.60000000149	4	0	0.123137783090064	0.876862216909935	1	2	10	1	1
28	1	455.10000000149	4	0	0.137374510875164	0.862625489124835	1	3	10	1	1
28	0	498.899999998509	4	1	0.815338984002432	0.184661015997567	0	4	10	1	1
28	0	434	4	1	0.855472123289692	0.144527876710307	0	5	10	1	1
28	1	350.80000000447	4	0	0.136387688700339	0.86361231129966	1	6	10	1	1
28	0	361.5	4	1	0.847247715695283	0.152752284304716	0	7	10	1	1
28	1	373.60000000149	4	0	0.199475949893747	0.800524050106252	1	8	10	1	1
28	0	371.899999998509	4	0	0.13096574107024	0.869034258929759	1	9	10	1	0
28	0	375.199999995529	4	1	0.826244769645605	0.173755230354394	0	10	10	1	1
28	0	336.199999995529	4	1	0.809167904173221	0.190832095826778	0	11	10	1	1
28	0	314.399999998509	4	1	0.813499273271201	0.186500726728798	0	12	10	1	1
28	1	324.799999997019	4	0	0.171770511411413	0.828229488588586	1	13	10	1	1
28	0	339.299999997019	4	1	0.851040002621486	0.148959997378513	0	14	10	1	1
28	0	366.80000000447	4	1	0.878691816224278	0.121308183775721	0	15	10	1	1
28	0	341.299999997019	4	1	0.856957969022981	0.143042030977018	0	16	10	1	1
28	1	337.299999997019	4	0	0.182869820771367	0.817130179228633	1	17	10	1	1
28	1	318.399999998509	4	0	0.152123337747514	0.847876662252485	1	18	10	1	1
28	0	314.699999995529	4	1	0.859084721318199	0.1409152786818	0	19	10	1	1
28	1	271.20000000298	4	0	0.127080925011773	0.872919074988226	1	20	10	1	1
28	0	324.80000000447	4	1	0.811766210127999	0.188233789872	0	21	10	1	1
28	1	259.5	4	0	0.134522086287356	0.865477913712643	1	22	10	1	1
28	1	307.10000000149	4	0	0.194174670223943	0.805825329776056	1	23	10	1	1
28	0	324.60000000149	4	1	0.831922422834489	0.16807757716551	0	24	10	1	1
28	0	365.299999997019	4	1	0.841623154219241	0.158376845780758	0	25	10	1	1
28	0	339.80000000447	4	1	0.802765893482604	0.197234106517395	1	1	11	0	0
28	1	323.10000000149	4	1	0.844054374170851	0.155945625829148	1	2	11	0	1
28	0	352.5	4	0	0.125372768233298	0.874627231766701	0	3	11	0	1
28	0	350.899999998509	4	0	0.122067209308326	0.877932790691673	0	4	11	0	1
28	0	353.80000000447	4	0	0.182377117284261	0.817622882715738	0	5	11	0	1
28	1	329	4	1	0.856089958640898	0.143910041359101	1	6	11	0	1
28	0	298.10000000149	4	0	0.165812081340524	0.834187918659475	0	7	11	0	1
28	1	312.799999997019	4	1	0.802299558175505	0.197700441824494	1	8	11	0	1
28	1	395	4	1	0.836623028552177	0.163376971447822	1	9	11	0	1
28	1	333.899999998509	4	1	0.832858964029647	0.167141035970352	1	10	11	0	1
28	0	374.599999994039	4	0	0.133465969227378	0.866534030772621	0	11	11	0	1
28	1	362.299999997019	4	1	0.805396970043121	0.194603029956878	1	12	11	0	1
28	1	330.399999998509	4	1	0.830099385753723	0.169900614246276	1	13	11	0	1
28	1	314.299999997019	4	0	0.189259239908612	0.810740760091387	0	14	11	0	0
28	1	372.5	4	1	0.84878806240612	0.151211937593879	1	15	11	0	1
28	1	329.20000000298	4	1	0.829004222058924	0.170995777941075	1	16	11	0	1
28	1	298.699999995529	4	0	0.164210894618679	0.83578910538132	0	17	11	0	0
28	0	383.5	4	0	0.165001709523037	0.834998290476962	0	18	11	0	1
28	1	366.20000000298	4	1	0.809572696829134	0.190427303170865	1	19	11	0	1
28	1	366.399999998509	4	1	0.833170241285967	0.166829758714032	1	20	11	0	1
28	0	414.10000000149	4	0	0.182447297100454	0.817552702899545	0	21	11	0	1
28	0	375	4	0	0.124621282935883	0.875378717064116	0	22	11	0	1
28	0	393.5	4	0	0.18770719594159	0.812292804058409	0	23	11	0	1
28	0	425.399999998509	4	0	0.166851465834287	0.833148534165712	0	24	11	0	1
28	1	372.599999994039	4	1	0.845917481171597	0.154082518828402	1	25	11	0	1
28	1	374.399999998509	2	1	0.527645876858569	0.47235412314143	1	1	12	0	1
28	1	436.60000000149	2	1	0.557931857432693	0.442068142567306	1	2	12	0	1
28	1	425.70000000298	2	1	0.520701643346255	0.479298356653745	1	3	12	0	1
28	1	539.799999997019	2	1	0.5640387079009	0.435961292099099	1	4	12	0	1
28	0	488.90000000596	2	0	0.421976085025928	0.578023914974071	0	5	12	0	1
28	1	502.799999997019	2	1	0.521776176060249	0.47822382393975	1	6	12	0	1
28	1	420.30000000447	2	1	0.518588700016003	0.481411299983996	1	7	12	0	1
28	0	636.299999997019	2	0	0.465995692535545	0.534004307464454	0	8	12	0	1
28	0	442.10000000149	2	0	0.430948358005374	0.569051641994625	0	9	12	0	1
28	1	391	2	0	0.49873196884381	0.501268031156189	0	10	12	0	0
28	1	355.60000000149	2	1	0.564860297123121	0.435139702876878	1	11	12	0	1
28	1	359.10000000149	2	1	0.561504382516257	0.438495617483742	1	12	12	0	1
28	1	364.899999998509	2	0	0.444826967872164	0.555173032127836	0	13	12	0	0
28	0	471	2	0	0.45412278080636	0.54587721919364	0	14	12	0	1
28	0	432.70000000298	2	0	0.433613491424346	0.566386508575653	0	15	12	0	1
28	1	390.899999998509	2	0	0.488436666591769	0.51156333340823	0	16	12	0	0
28	1	419.10000000149	2	0	0.468493227148812	0.531506772851187	0	17	12	0	0
28	1	425.399999998509	2	1	0.554698447542342	0.445301552457658	1	18	12	0	1
28	1	403.20000000298	2	1	0.50852399048913	0.491476009510869	1	19	12	0	1
28	0	381.70000000298	2	0	0.448613538141109	0.55138646185889	0	20	12	0	1
28	1	365.70000000298	2	1	0.57672075947156	0.423279240528439	1	21	12	0	1
28	1	360.299999997019	2	0	0.449830912999566	0.550169087000433	0	22	12	0	0
28	1	392.799999997019	2	1	0.511172538146493	0.488827461853506	1	23	12	0	1
28	0	423	2	0	0.460291499955786	0.539708500044213	0	24	12	0	1
28	0	362.399999998509	2	0	0.487884039658317	0.512115960341682	0	25	12	0	1
28	1	397.30000000447	1	1	0.513113833213972	0.486886166786027	0	1	13	1	0
28	0	542.90000000596	1	1	0.510669144644261	0.489330855355738	0	2	13	1	1
28	1	397.60000000149	1	0	0.423059053499462	0.576940946500537	1	3	13	1	1
28	0	359.70000000298	1	1	0.518606310501861	0.481393689498138	0	4	13	1	1
28	1	388.70000000298	1	0	0.451643842123601	0.548356157876399	1	5	13	1	1
28	1	354.60000000149	1	0	0.43438953819731	0.565610461802689	1	6	13	1	1
28	0	364.699999995529	1	1	0.537806770343177	0.462193229656822	0	7	13	1	1
28	1	423.80000000447	1	1	0.507923062431236	0.492076937568763	0	8	13	1	0
28	0	383.60000000149	1	0	0.495322929049347	0.504677070950652	1	9	13	1	0
28	0	408.399999998509	1	1	0.56803794093121	0.431962059068789	0	10	13	1	1
28	0	430.20000000298	1	1	0.502287722868629	0.49771227713137	0	11	13	1	1
28	0	322.30000000447	1	0	0.484946655435114	0.515053344564885	1	12	13	1	0
28	1	421.20000000298	1	0	0.429810913498974	0.570189086501025	1	13	13	1	1
28	0	333.5	1	0	0.487566891034358	0.512433108965641	1	14	13	1	0
28	1	315.5	1	0	0.423546131105874	0.576453868894125	1	15	13	1	1
28	0	313.399999998509	1	1	0.56438805689641	0.435611943103589	0	16	13	1	1
28	0	340.299999997019	1	1	0.553794960136143	0.446205039863856	0	17	13	1	1
28	0	368.099999994039	1	0	0.476126611892357	0.523873388107642	1	18	13	1	0
28	0	453.40000000596	1	1	0.531600384512162	0.468399615487837	0	19	13	1	1
28	0	576.20000000298	1	0	0.493192970629628	0.506807029370371	1	20	13	1	0
28	0	401.899999998509	1	1	0.551017467245894	0.448982532754105	0	21	13	1	1
28	0	404.30000000447	1	1	0.579685752076417	0.420314247923582	0	22	13	1	1
28	1	410.40000000596	1	0	0.424791415442321	0.575208584557678	1	23	13	1	1
28	0	405.90000000596	1	1	0.558974221241137	0.441025778758862	0	24	13	1	1
28	1	460.899999998509	1	0	0.491782992718285	0.508217007281714	1	25	13	1	1
28	0	395.10000000149	3	1	0.823244340021958	0.176755659978041	0	1	14	1	1
28	0	356	3	1	0.815209815908875	0.184790184091124	0	2	14	1	1
28	0	351.10000000149	3	1	0.873193526899302	0.126806473100698	0	3	14	1	1
28	0	361.399999998509	3	1	0.812941932230264	0.187058067769735	0	4	14	1	1
28	1	306.899999998509	3	0	0.193100625676787	0.806899374323212	1	5	14	1	1
28	1	358.70000000298	3	0	0.145021939895754	0.854978060104245	1	6	14	1	1
28	1	386.899999998509	3	0	0.188106607200645	0.811893392799354	1	7	14	1	1
28	0	364.20000000298	3	1	0.865052884585748	0.134947115414251	0	8	14	1	1
28	0	389.799999997019	3	0	0.148039219989733	0.851960780010266	1	9	14	1	0
28	0	360	3	1	0.802459922369675	0.197540077630324	0	10	14	1	1
28	1	277.70000000298	3	0	0.168461597169081	0.831538402830918	1	11	14	1	1
28	0	261.5	3	1	0.849463338945719	0.15053666105428	0	12	14	1	1
28	0	304.899999998509	3	1	0.818787758099651	0.181212241900348	0	13	14	1	1
28	0	352.799999997019	3	1	0.820129250371683	0.179870749628316	0	14	14	1	1
28	1	302.60000000149	3	0	0.195037103161642	0.804962896838357	1	15	14	1	1
28	0	287.5	3	1	0.87434197774436	0.125658022255639	0	16	14	1	1
28	1	319.5	3	0	0.144497855440457	0.855502144559542	1	17	14	1	1
28	1	332.399999998509	3	0	0.134806762221517	0.865193237778482	1	18	14	1	1
28	1	316.899999998509	3	0	0.17734446371057	0.822655536289429	1	19	14	1	1
28	0	289.70000000298	3	1	0.850989706359641	0.149010293640359	0	20	14	1	1
28	1	299.70000000298	3	0	0.154178728832256	0.845821271167744	1	21	14	1	1
28	1	324	3	0	0.133405274322729	0.86659472567727	1	22	14	1	1
28	0	320	3	1	0.847227352283976	0.152772647716023	0	23	14	1	1
28	1	306.099999994039	3	0	0.143671633469239	0.85632836653076	1	24	14	1	1
28	0	324.80000000447	3	1	0.815556880594895	0.184443119405104	0	25	14	1	1
28	1	331.30000000447	3	0	0.128899989775569	0.87110001022443	0	1	15	0	0
28	0	384.70000000298	3	0	0.144725286412134	0.855274713587865	0	2	15	0	1
28	1	345.60000000149	3	1	0.823738518676634	0.176261481323366	1	3	15	0	1
28	0	425.20000000298	3	0	0.142479994409942	0.857520005590057	0	4	15	0	1
28	1	348.30000000447	3	1	0.873355959901265	0.126644040098734	1	5	15	0	1
28	1	381.5	3	1	0.841702167098494	0.158297832901505	1	6	15	0	1
28	0	319.799999997019	3	0	0.193909716729209	0.80609028327079	0	7	15	0	1
28	0	371.20000000298	3	0	0.124478897141173	0.875521102858826	0	8	15	0	1
28	1	345	3	1	0.824414812809432	0.175585187190567	1	9	15	0	1
28	1	299.60000000149	3	1	0.87153281824926	0.128467181750739	1	10	15	0	1
28	1	313.5	3	1	0.816290785033205	0.183709214966794	1	11	15	0	1
28	0	363.099999994039	3	0	0.147502160399369	0.852497839600631	0	12	15	0	1
28	1	350.30000000447	3	1	0.867363955813939	0.132636044186061	1	13	15	0	1
28	0	425.5	3	0	0.18489290476679	0.815107095233209	0	14	15	0	1
28	1	364.399999998509	3	1	0.843889652054442	0.156110347945557	1	15	15	0	1
28	0	381.299999997019	3	0	0.132687067213008	0.867312932786992	0	16	15	0	1
28	0	416.10000000149	3	0	0.169830105141714	0.830169894858285	0	17	15	0	1
28	1	326.90000000596	3	1	0.848848363598392	0.151151636401607	1	18	15	0	1
28	1	361.799999997019	3	0	0.143140309198177	0.856859690801822	0	19	15	0	0
28	0	345.5	3	0	0.170472969706025	0.829527030293974	0	20	15	0	1
28	1	389.5	3	1	0.814227664695466	0.185772335304533	1	21	15	0	1
28	0	324.5	3	1	0.818665826013232	0.181334173986767	1	22	15	0	0
28	1	308.5	3	1	0.810031597247243	0.189968402752756	1	23	15	0	1
28	0	387.299999997019	3	0	0.1866448479474	0.813355152052599	0	24	15	0	1
28	1	375.20000000298	3	1	0.820512883253219	0.17948711674678	1	25	15	0	1
28	1	505.799999997019	1	1	0.512603958623843	0.487396041376156	1	1	16	0	1
28	0	445.30000000447	1	0	0.460943667991606	0.539056332008393	0	2	16	0	1
28	0	518.899999998509	1	1	0.507476088879061	0.492523911120938	1	3	16	0	0
28	0	398.399999998509	1	0	0.473499500746241	0.526500499253758	0	4	16	0	1
28	0	379.60000000149	1	0	0.483818706903651	0.516181293096348	0	5	16	0	1
28	0	374.899999998509	1	0	0.428911962525751	0.571088037474248	0	6	16	0	1
28	1	352.60000000149	1	0	0.444505717165657	0.555494282834342	0	7	16	0	0
28	1	376.799999997019	1	1	0.53308521052496	0.466914789475039	1	8	16	0	1
28	1	315.099999994039	1	0	0.499718512023832	0.500281487976168	0	9	16	0	0
28	0	327.199999995529	1	0	0.460419808312091	0.539580191687908	0	10	16	0	1
28	0	405.299999997019	1	0	0.457315435750423	0.542684564249576	0	11	16	0	1
28	1	436.899999998509	1	1	0.543217882977812	0.456782117022187	1	12	16	0	1
28	1	351.90000000596	1	1	0.526471287368604	0.473528712631395	1	13	16	0	1
28	1	358.199999995529	1	1	0.571023008739459	0.42897699126054	1	14	16	0	1
28	1	334.399999998509	1	1	0.578882716135072	0.421117283864927	1	15	16	0	1
28	1	314.299999997019	1	0	0.466939273220212	0.533060726779788	0	16	16	0	0
28	1	371.899999998509	1	1	0.568543593326869	0.43145640667313	1	17	16	0	1
28	0	444.899999998509	1	0	0.461858938059412	0.538141061940587	0	18	16	0	1
28	1	365.5	1	1	0.553339957746797	0.446660042253202	1	19	16	0	1
28	0	402.5	1	0	0.456940997595197	0.543059002404802	0	20	16	0	1
28	0	385.5	1	1	0.524579978664625	0.475420021335374	1	21	16	0	0
28	0	396.799999997019	1	0	0.450685027637634	0.549314972362365	0	22	16	0	1
28	0	407.699999995529	1	0	0.496937931576592	0.503062068423407	0	23	16	0	1
28	0	342.299999997019	1	1	0.565252549341577	0.434747450658422	1	24	16	0	0
28	1	331.10000000149	1	1	0.570895635433207	0.429104364566792	1	25	16	0	1
