ID	choice	rt	choice_cond	state	contrast_left	contrast_right	mu	correct	trials	blocks	contrast	congruence	con_diff_choice	ecoperf
418	1	[677.6000000014901]	2	1	0.591462026038595	0.408537973961404	50	0	1	1	1	1	0.182924052077191	0
418	0	[608.8999999985099]	2	0	0.472994093124158	0.527005906875841	42	0	2	1	1	1	0.054011813751683	0
418	0	[458.5]	2	0	0.455556450726127	0.544443549273872	60	0	3	1	1	1	0.088887098547745	0
418	0	[523.7999999970198]	2	1	0.561724682660116	0.438275317339883	77	1	4	1	1	1	0.123449365320233	1
418	1	[451.80000000074506]	2	0	0.43848385153075	0.561516148469249	75	1	5	1	1	1	0.123032296938499	1
418	1	[615]	2	0	0.400877797543965	0.599122202456034	81	1	6	1	1	1	0.198244404912069	1
418	1	[439.4000000022352]	2	0	0.414854434446297	0.585145565553702	86	1	7	1	1	1	0.170291131107405	1
418	0	[672]	2	1	0.57702219342265	0.422977806577349	84	1	8	1	1	1	0.154044386845301	1
418	1	[433.70000000298023]	2	0	0.448999066574144	0.551000933425855	92	1	9	1	1	1	0.102001866851711	1
418	0	[603.2000000029802]	2	0	0.499187913803111	0.500812086196888	85	0	10	1	1	1	0.00162417239377699	0
418	1	[354.80000000074506]	2	0	0.430822300824285	0.569177699175714	75	1	11	1	1	1	0.138355398351429	1
418	1	[350.0999999977648]	2	0	0.462397602864877	0.537602397135122	90	1	12	1	1	1	0.075204794270245	1
418	1	[697.4000000022352]	2	0	0.497081365150371	0.502918634849628	89	1	13	1	1	1	0.00583726969925696	1
418	0	[539.2000000029802]	2	1	0.537963080689329	0.46203691931067	85	1	14	1	1	1	0.075926161378659	1
418	1	[665.3000000007451]	2	1	0.503061397303531	0.496938602696468	84	0	15	1	1	1	0.00612279460706305	0
418	0	[425.30000000074506]	2	1	0.550761877328173	0.449238122671826	83	1	16	1	1	1	0.101523754656347	1
418	0	[604.1000000014901]	2	1	0.567165436494694	0.432834563505305	79	1	17	1	1	1	0.134330872989389	1
418	1	[413.0999999977648]	2	0	0.410056748415099	0.5899432515849	84	1	18	1	1	1	0.179886503169801	1
418	0	[512.4000000022352]	2	1	0.561554398380999	0.438445601619	79	1	19	1	1	1	0.123108796761999	1
418	1	[480]	2	0	0.468772521062783	0.531227478937216	79	1	20	1	1	1	0.062454957874433	1
418	0	[648.0999999977648]	2	1	0.514861870350704	0.485138129649295	87	1	21	1	1	1	0.029723740701409	1
418	0	[456.80000000074506]	2	1	0.596594183205638	0.403405816794361	85	1	22	1	1	1	0.193188366411277	1
418	0	[419.5999999977648]	2	1	0.590928950605175	0.409071049394824	79	1	23	1	1	1	0.181857901210351	1
418	1	[363.80000000074506]	2	0	0.41265971958208	0.587340280417919	79	1	24	1	1	1	0.174680560835839	1
418	0	[461.79999999701977]	2	1	0.577460575797052	0.422539424202947	76	1	25	1	1	1	0.154921151594105	1
418	0	[443.6000000014901]	1	1	0.520074280857516	0.479925719142483	29	1	1	2	1	0	0.0401485617150329	1
418	0	[561.5]	1	1	0.547278731705634	0.452721268294365	50	0	2	2	1	0	0.094557463411269	1
418	1	[436.5]	1	0	0.407769338485539	0.59223066151446	70	0	3	2	1	0	0.184461323028921	1
418	0	[476.0999999977648]	1	0	0.411196046614058	0.588803953385941	35	0	4	2	1	0	0.177607906771883	0
418	0	[437.20000000298023]	1	0	0.464565761853567	0.535434238146433	50	1	5	2	1	0	0.070868476292866	0
418	0	[545.1999999992549]	1	0	0.457203926684786	0.542796073315214	39	0	6	2	1	0	0.085592146630428	0
418	1	[427.30000000074506]	1	1	0.547349814235312	0.452650185764687	23	0	7	2	1	0	0.094699628470625	0
418	0	[415.1000000014901]	1	1	0.584385015966997	0.415614984033002	33	0	8	2	1	0	0.168770031933995	1
418	1	[450.79999999701977]	1	1	0.560877635838034	0.439122364161966	23	0	9	2	1	0	0.121755271676068	0
418	0	[571.9000000022352]	1	0	0.413520149945342	0.586479850054657	12	0	10	2	1	0	0.172959700109315	0
418	1	[680.3000000007451]	1	0	0.46008386763653	0.539916132363469	10	1	11	2	1	0	0.0798322647269391	1
418	1	[483]	1	1	0.588302151544837	0.411697848455162	1	0	12	2	1	0	0.176604303089675	0
418	1	[557.5]	1	0	0.450073385048933	0.549926614951066	5	1	13	2	1	0	0.099853229902133	1
418	0	[381.1000000014901]	1	1	0.588656514919508	0.411343485080491	9	1	14	2	1	0	0.177313029839017	1
418	1	[405.9000000022352]	1	0	0.407235222321541	0.592764777678458	10	1	15	2	1	0	0.185529555356917	1
418	0	[377.4000000022352]	1	1	0.549400562701177	0.450599437298822	14	1	16	2	1	0	0.098801125402355	1
418	0	[616.3999999985099]	1	1	0.537186851527164	0.462813148472835	12	1	17	2	1	0	0.0743737030543291	1
418	0	[569.6000000014901]	1	0	0.491022476938369	0.50897752306163	7	0	18	2	1	0	0.017955046123261	0
418	1	[605.3000000007451]	1	0	0.407639582721513	0.592360417278486	19	0	19	2	1	0	0.184720834556973	1
418	0	[580.3999999985099]	1	1	0.529100986614721	0.470899013385278	24	1	20	2	1	0	0.058201973229443	1
418	0	[640.2999999970198]	1	0	0.44280225282491	0.557197747175089	4	0	21	2	1	0	0.114395494350179	0
418	1	[549.2000000029802]	1	0	0.477008472512746	0.522991527487253	13	0	22	2	1	0	0.045983054974507	1
418	1	[618.6999999992549]	1	0	0.424765188610933	0.575234811389067	11	1	23	2	1	0	0.150469622778134	1
418	0	[614.6000000014901]	1	1	0.569161716630326	0.430838283369673	13	0	24	2	1	0	0.138323433260653	1
418	0	[496.20000000298023]	1	1	0.523897954229013	0.476102045770986	13	1	25	2	1	0	0.0477959084580269	1
418	0	[375.69999999925494]	3	1	0.907359834500606	0.0926401654993935	74	1	1	3	1	1	0.814719669001213	1
418	1	[411.6000000014901]	3	0	0.0828009727468143	0.917199027253185	50	0	2	3	1	1	0.834398054506371	1
418	1	[395.69999999925494]	3	0	0.0859955622365823	0.914004437763417	75	1	3	3	1	1	0.828008875526835	1
418	0	[439.6000000014901]	3	1	0.850689578713642	0.149310421286357	50	0	4	3	1	1	0.701379157427285	1
418	0	[434]	3	1	0.947043772299972	0.0529562277000276	39	1	5	3	1	1	0.894087544599944	1
418	0	[416.8999999985099]	3	1	0.875976511641599	0.1240234883584	50	0	6	3	1	1	0.751953023283199	1
418	1	[727.9000000022352]	3	0	0.138442508525735	0.861557491474264	34	0	7	3	1	1	0.723114982948529	1
418	1	[427.6000000014901]	3	1	0.902391638142839	0.0976083618571609	50	0	8	3	1	1	0.804783276285678	0
418	1	[495.3999999985099]	3	1	0.940083116428674	0.0599168835713258	60	0	9	3	1	1	0.880166232857348	0
418	1	[337.69999999925494]	3	0	0.0567898803336659	0.943210119666334	75	1	10	3	1	1	0.886420239332668	1
418	1	[311.80000000074506]	3	0	0.0942359271813991	0.9057640728186	74	1	11	3	1	1	0.811528145637201	1
418	0	[715.5]	3	1	0.852769379657073	0.147230620342926	76	1	12	3	1	1	0.705538759314147	1
418	0	[613.6999999992549]	3	1	0.925521382293129	0.0744786177068705	83	1	13	3	1	1	0.851042764586258	1
418	1	[361.8999999985099]	3	0	0.140805544620787	0.859194455379212	89	1	14	3	1	1	0.718388910758425	1
418	0	[554]	3	1	0.876690512031214	0.123309487968785	89	1	15	3	1	1	0.753381024062429	1
418	1	[337.5999999977648]	3	0	0.135099976789023	0.864900023210976	87	1	16	3	1	1	0.729800046421953	1
418	1	[318.30000000074506]	3	0	0.138285511710727	0.861714488289272	89	1	17	3	1	1	0.723428976578545	1
418	0	[415.6000000014901]	3	1	0.879930692504906	0.120069307495093	81	1	18	3	1	1	0.759861385009813	1
418	0	[416.6000000014901]	3	1	0.852877171791698	0.147122828208301	90	0	19	3	1	1	0.705754343583397	1
418	1	[331.5]	3	0	0.0619548122093682	0.938045187790631	86	1	20	3	1	1	0.876090375581263	1
418	1	[379.80000000074506]	3	0	0.0537268646202144	0.946273135379785	87	0	21	3	1	1	0.892546270759571	1
418	0	[388.69999999925494]	3	1	0.895970873662684	0.104029126337315	91	1	22	3	1	1	0.791941747325369	1
418	1	[354.9000000022352]	3	0	0.123319682832515	0.876680317167484	88	1	23	3	1	1	0.753360634334969	1
418	1	[314.69999999925494]	3	0	0.0972947921165164	0.902705207883483	74	0	24	3	1	1	0.805410415766967	1
418	1	[288.6000000014901]	3	0	0.052589854784489	0.947410145215511	82	1	25	3	1	1	0.894820290431022	1
418	1	[549.6999999992549]	2	0	0.414133924859679	0.58586607514032	50	0	1	4	0	1	0.171732150280641	0
418	1	[520.1000000014901]	2	0	0.477951521140982	0.522048478859017	50	0	2	4	0	1	0.044096957718035	0
418	0	[514]	2	1	0.566816762493904	0.433183237506095	50	0	3	4	0	1	0.133633524987809	0
418	0	[825.3000000007451]	2	0	0.420301799452054	0.579698200547945	74	1	4	4	0	1	0.159396401095891	1
418	1	[445.8999999985099]	2	1	0.53482593008416	0.465174069915839	79	1	5	4	0	1	0.069651860168321	1
418	1	[451.80000000074506]	2	1	0.575609382023697	0.424390617976302	85	1	6	4	0	1	0.151218764047395	1
418	1	[604]	2	1	0.533187482336719	0.46681251766328	81	1	7	4	0	1	0.066374964673439	1
418	1	[391.4000000022352]	2	1	0.554846550201651	0.445153449798348	85	1	8	4	0	1	0.109693100403303	1
418	1	[250.90000000223517]	2	0	0.465900271393463	0.534099728606536	87	0	9	4	0	1	0.068199457213073	0
418	0	[459.4000000022352]	2	0	0.446753291200085	0.553246708799915	82	1	10	4	0	1	0.10649341759983	1
418	0	[387.79999999701977]	2	0	0.43660770071202	0.563392299287979	85	1	11	4	0	1	0.126784598575959	1
418	0	[417.69999999925494]	2	0	0.448752037751764	0.551247962248235	84	1	12	4	0	1	0.102495924496471	1
418	1	[521.3999999985099]	2	1	0.552011414075826	0.447988585924173	81	1	13	4	0	1	0.104022828151653	1
418	1	[617.5]	2	1	0.545191461329659	0.45480853867034	86	1	14	4	0	1	0.090382922659319	1
418	1	[449.5]	2	1	0.588943160565247	0.411056839434753	85	1	15	4	0	1	0.177886321130494	1
418	1	[555.6999999992549]	2	1	0.589057880080844	0.410942119919155	81	1	16	4	0	1	0.178115760161689	1
418	0	[666]	2	0	0.499218571078895	0.500781428921104	84	1	17	4	0	1	0.001562857842209	1
418	0	[452.6000000014901]	2	0	0.422352446952561	0.577647553047438	78	1	18	4	0	1	0.155295106094877	1
418	1	[681.1999999992549]	2	0	0.495240285577854	0.504759714422145	80	0	19	4	0	1	0.00951942884429097	0
418	1	[533.1999999992549]	2	1	0.525885922120635	0.474114077879364	80	1	20	4	0	1	0.051771844241271	1
418	0	[486.0999999977648]	2	0	0.4686918749615	0.5313081250385	83	1	21	4	0	1	0.062616250077	1
418	0	[900]	2	0	0.442438095865006	0.557561904134993	81	1	22	4	0	1	0.115123808269987	1
418	1	[683.8999999985099]	2	1	0.595397820663192	0.404602179336807	82	1	23	4	0	1	0.190795641326385	1
418	1	[395.69999999925494]	2	1	0.566204466759586	0.433795533240413	84	1	24	4	0	1	0.132408933519173	1
418	1	[950.1999999992549]	2	0	0.487485271819309	0.51251472818069	80	0	25	4	0	1	0.025029456361381	0
418	1	[566.1999999992549]	2	1	0.511740014309749	0.48825998569025	41	1	1	5	0	0	0.023480028619499	1
418	1	[485.30000000074506]	2	1	0.556135839424143	0.443864160575856	23	1	2	5	0	0	0.112271678848287	1
418	1	[560.5]	2	0	0.491144364742801	0.508855635257198	38	0	3	5	0	0	0.017711270514397	0
418	1	[485.19999999925494]	2	1	0.535430124230742	0.464569875769258	32	1	4	5	0	0	0.070860248461484	1
418	0	[565.1999999992549]	2	0	0.443218849472143	0.556781150527856	26	1	5	5	0	0	0.113562301055713	1
418	1	[402.1000000014901]	2	1	0.597446251235455	0.402553748764544	30	1	6	5	0	0	0.194892502470911	1
418	1	[665.5]	2	0	0.49277130984772	0.507228690152279	22	0	7	5	0	0	0.014457380304559	0
418	1	[453.80000000074506]	2	1	0.554478998458883	0.445521001541116	31	1	8	5	0	0	0.108957996917767	1
418	1	[359.6000000014901]	2	0	0.413511005259239	0.58648899474076	19	0	9	5	0	0	0.172977989481521	0
418	0	[657.6999999992549]	2	1	0.511409899072175	0.488590100927824	32	0	10	5	0	0	0.022819798144351	0
418	1	[448.69999999925494]	2	1	0.527428525387327	0.472571474612672	32	1	11	5	0	0	0.054857050774655	1
418	0	[548.5]	2	0	0.450924835789952	0.549075164210047	29	1	12	5	0	0	0.098150328420095	1
418	0	[567.3999999985099]	2	0	0.495652928236619	0.50434707176338	27	1	13	5	0	0	0.00869414352676101	1
418	0	[517.8000000007451]	2	1	0.505648725896897	0.494351274103102	80	0	14	5	0	0	0.011297451793795	0
418	1	[512.8999999985099]	2	1	0.534159100818792	0.465840899181207	24	1	15	5	0	0	0.068318201637585	1
418	0	[494.69999999925494]	2	0	0.44135238490021	0.558647615099789	23	1	16	5	0	0	0.117295230199579	1
418	1	[732.1000000014901]	2	0	0.485210739288159	0.51478926071184	25	0	17	5	0	0	0.0295785214236809	0
418	0	[417.69999999925494]	2	0	0.407468850951698	0.592531149048301	23	1	18	5	0	0	0.185062298096603	1
418	1	[535.6000000014901]	2	1	0.595602086070141	0.404397913929858	29	1	19	5	0	0	0.191204172140283	1
418	1	[631.6000000014901]	2	1	0.513414725938499	0.4865852740615	28	1	20	5	0	0	0.026829451876999	1
418	1	[470.19999999925494]	2	1	0.575120867004094	0.424879132995905	26	1	21	5	0	0	0.150241734008189	1
418	1	[666.6000000014901]	2	1	0.552957712466982	0.447042287533018	22	1	22	5	0	0	0.105915424933964	1
418	0	[961.1999999992549]	2	0	0.45665766769592	0.543342332304079	23	0	23	5	0	0	0.086684664608159	1
418	0	[398.3999999985099]	2	0	0.428668972282124	0.571331027717875	18	0	24	5	0	0	0.142662055435751	1
418	0	[389.9000000022352]	2	0	0.462609917495647	0.537390082504352	22	0	25	5	0	0	0.074780165008705	1
418	0	[527.5]	3	0	0.0710319332865497	0.92896806671345	50	1	1	6	0	0	0.8579361334269	1
418	0	[332.19999999925494]	3	1	0.856277063837169	0.14372293616283	50	1	2	6	0	0	0.712554127674339	0
418	1	[335.5]	3	0	0.110999020651527	0.889000979348472	75	1	3	6	0	0	0.778001958696945	0
418	0	[370.6000000014901]	3	1	0.895582389484016	0.104417610515983	75	0	4	6	0	0	0.791164778968033	0
418	1	[777]	3	0	0.141966831868848	0.858033168131151	50	0	5	6	0	0	0.716066336262303	0
418	1	[702]	3	1	0.914218488136572	0.0857815118634275	50	0	6	6	0	0	0.828436976273144	1
418	1	[431.20000000298023]	3	0	0.138216587103102	0.861783412896897	66	1	7	6	0	0	0.723566825793795	0
418	1	[325.5]	3	0	0.0813902745911788	0.918609725408821	58	0	8	6	0	0	0.837219450817642	0
418	0	[448.6000000014901]	3	1	0.911313559742187	0.0886864402578127	50	0	9	6	0	0	0.822627119484374	0
418	1	[348.80000000074506]	3	1	0.851332355384922	0.148667644615077	50	1	10	6	0	0	0.702664710769845	1
418	0	[453.30000000074506]	3	0	0.137853306928867	0.862146693071132	42	1	11	6	0	0	0.724293386142265	1
418	1	[443.80000000074506]	3	1	0.923786585005666	0.0762134149943332	38	1	12	6	0	0	0.847573170011333	1
418	0	[383.19999999925494]	3	0	0.0849294307365607	0.915070569263439	30	1	13	6	0	0	0.830141138526878	1
418	0	[541.6000000014901]	3	0	0.0739314418657811	0.926068558134218	32	1	14	6	0	0	0.852137116268437	1
418	0	[416.69999999925494]	3	0	0.138397801714392	0.861602198285607	21	1	15	6	0	0	0.723204396571215	1
418	1	[376.8999999985099]	3	1	0.917280489229077	0.0827195107709226	27	1	16	6	0	0	0.834560978458154	1
418	1	[385.8999999985099]	3	1	0.942607958772573	0.0573920412274265	22	1	17	6	0	0	0.885215917545147	1
418	0	[590.1999999992549]	3	1	0.871163624106445	0.128836375893554	37	1	18	6	0	0	0.742327248212891	0
418	0	[535.5]	3	0	0.110366359433027	0.889633640566972	26	1	19	6	0	0	0.779267281133945	1
418	0	[691.3999999985099]	3	0	0.142727759563103	0.857272240436897	45	0	20	6	0	0	0.714544480873794	1
418	0	[352.8999999985099]	3	0	0.0780236147500713	0.921976385249928	32	1	21	6	0	0	0.843952770499857	1
418	1	[866.9000000022352]	3	1	0.923968053959197	0.0760319460408029	31	1	22	6	0	0	0.847936107918394	1
418	1	[427.9000000022352]	3	0	0.12431830496915	0.875681695030849	41	1	23	6	0	0	0.751363390061699	0
418	1	[715.1999999992549]	3	1	0.930489548023158	0.0695104519768414	24	0	24	6	0	0	0.860979096046317	1
418	0	[757.8000000007451]	3	1	0.877227959005241	0.122772040994759	28	0	25	6	0	0	0.754455918010482	0
418	0	[674.6000000014901]	3	0	0.110434195710401	0.889565804289598	76	1	1	7	1	0	0.779131608579197	0
418	1	[361.30000000074506]	3	1	0.917874170312752	0.0821258296872473	50	0	2	7	1	0	0.835748340625505	0
418	1	[355.19999999925494]	3	1	0.877261441328703	0.122738558671296	75	1	3	7	1	0	0.754522882657407	0
418	1	[354.69999999925494]	3	1	0.926530303614453	0.0734696963855465	47	0	4	7	1	0	0.853060607228907	0
418	0	[366]	3	1	0.878049072713217	0.121950927286782	54	0	5	7	1	0	0.756098145426435	1
418	0	[375.3999999985099]	3	1	0.85491431395935	0.145085686040649	43	1	6	7	1	0	0.709828627918701	1
418	1	[380]	3	0	0.0966637400996101	0.903336259900389	43	1	7	7	1	0	0.806672519800779	1
418	0	[451.6000000014901]	3	1	0.919666728830245	0.0803332711697542	41	1	8	7	1	0	0.839333457660491	1
418	1	[577.0999999977648]	3	0	0.146983757494741	0.853016242505258	44	0	9	7	1	0	0.706032485010517	1
418	0	[407.5]	3	1	0.882630206346063	0.117369793653936	40	1	10	7	1	0	0.765260412692127	1
418	1	[362]	3	0	0.0810064779914657	0.918993522008534	40	1	11	7	1	0	0.837987044017068	1
418	1	[385]	3	0	0.0851063998983058	0.914893600101694	43	1	12	7	1	0	0.829787200203388	1
418	1	[649.6999999992549]	3	0	0.119534833949979	0.88046516605002	40	1	13	7	1	0	0.760930332100041	1
418	1	[319.3999999985099]	3	0	0.087732191495971	0.912267808504029	34	1	14	7	1	0	0.824535617008058	1
418	1	[321.5]	3	0	0.130841813917181	0.869158186082818	37	1	15	7	1	0	0.738316372165637	1
418	1	[523.7999999970198]	3	0	0.137135296384256	0.862864703615743	25	1	16	7	1	0	0.725729407231487	1
418	1	[562.8000000007451]	3	0	0.0641753460130515	0.935824653986948	25	0	17	7	1	0	0.871649307973897	1
418	1	[379.30000000074506]	3	0	0.136449815616417	0.863550184383583	27	1	18	7	1	0	0.727100368767166	1
418	0	[483.3999999985099]	3	1	0.862449483494146	0.137550516505853	23	1	19	7	1	0	0.724898966988293	1
418	1	[444.4000000022352]	3	1	0.883614859965459	0.11638514003454	42	1	20	7	1	0	0.767229719930919	0
418	1	[361.6000000014901]	3	0	0.144019516994686	0.855980483005313	50	0	21	7	1	0	0.711960966010627	1
418	0	[413.6000000014901]	3	0	0.0755894053377023	0.924410594662297	45	0	22	7	1	0	0.848821189324595	0
418	0	[435.30000000074506]	3	1	0.86947392825547	0.130526071744529	42	1	23	7	1	0	0.738947856510941	1
418	0	[372.5]	3	1	0.89411987788901	0.105880122110989	37	0	24	7	1	0	0.788239755778021	1
418	0	[396.0999999977648]	3	1	0.911274890874361	0.0887251091256385	36	0	25	7	1	0	0.822549781748723	1
418	1	[551.6999999992549]	2	0	0.470438173643634	0.529561826356365	50	1	1	8	1	0	0.059123652712731	1
418	1	[431.79999999701977]	2	1	0.512937262978892	0.487062737021107	46	0	2	8	1	0	0.025874525957785	0
418	1	[463.19999999925494]	2	0	0.488965838707395	0.511034161292604	45	1	3	8	1	0	0.022068322585209	1
418	1	[445]	2	0	0.45613192680408	0.543868073195919	34	1	4	8	1	0	0.087736146391839	1
418	0	[662.1000000014901]	2	1	0.553410183102029	0.44658981689797	25	1	5	8	1	0	0.106820366204059	1
418	1	[554.1000000014901]	2	0	0.401732855273914	0.598267144726085	28	1	6	8	1	0	0.196534289452171	1
418	0	[974.6000000014901]	2	1	0.508924992105325	0.491075007894674	27	1	7	8	1	0	0.017849984210651	1
418	0	[492.29999999701977]	2	1	0.543482202193767	0.456517797806232	16	1	8	8	1	0	0.086964404387535	1
418	0	[613.8000000007451]	2	1	0.503129630607577	0.496870369392422	16	1	9	8	1	0	0.00625926121515497	1
418	1	[474.69999999925494]	2	0	0.450531874879348	0.549468125120651	23	1	10	8	1	0	0.098936250241303	1
418	1	[500.4000000022352]	2	0	0.458578754806138	0.541421245193861	10	1	11	8	1	0	0.082842490387723	1
418	0	[642.7999999970198]	2	1	0.52950472082639	0.470495279173609	17	1	12	8	1	0	0.059009441652781	1
418	0	[548.8999999985099]	2	1	0.540767153638328	0.459232846361671	16	1	13	8	1	0	0.0815343072766569	1
418	1	[832.8000000007451]	2	1	0.503502645116976	0.496497354883024	22	0	14	8	1	0	0.00700529023395197	0
418	0	[461.69999999925494]	2	1	0.579641719688442	0.420358280311557	15	1	15	8	1	0	0.159283439376885	1
418	1	[482.1000000014901]	2	0	0.439859159528892	0.560140840471108	16	1	16	8	1	0	0.120281680942216	1
418	1	[531.4000000022352]	2	0	0.473353851872274	0.526646148127725	17	1	17	8	1	0	0.053292296255451	1
418	0	[486.19999999925494]	2	1	0.534456926861986	0.465543073138013	16	1	18	8	1	0	0.068913853723973	1
418	1	[427.29999999701977]	2	0	0.431947120381701	0.568052879618298	18	1	19	8	1	0	0.136105759236597	1
418	0	[475.5]	2	1	0.569471415511658	0.430528584488341	16	1	20	8	1	0	0.138942831023317	1
418	1	[470.1000000014901]	2	0	0.429931088376866	0.570068911623133	19	1	21	8	1	0	0.140137823246267	1
418	0	[561.8000000007451]	2	0	0.495799827970123	0.504200172029876	14	0	22	8	1	0	0.00840034405975298	0
418	1	[578]	2	1	0.502754458723523	0.497245541276476	16	0	23	8	1	0	0.00550891744704696	0
418	1	[664.1999999992549]	2	0	0.484813751800852	0.515186248199147	15	1	24	8	1	0	0.030372496398295	1
418	0	[415.30000000074506]	2	1	0.588848776324062	0.411151223675937	14	0	25	8	1	0	0.177697552648125	1
418	1	[480.30000000074506]	1	0	0.441148961934773	0.558851038065226	63	0	1	9	0	1	0.117702076130453	0
418	1	[492.19999999925494]	1	0	0.447364997797882	0.552635002202117	50	1	2	9	0	1	0.105270004404235	0
418	1	[363.3999999985099]	1	0	0.458245653149363	0.541754346850636	60	0	3	9	0	1	0.083508693701273	0
418	0	[493.19999999925494]	1	1	0.514974782339306	0.485025217660693	71	1	4	9	0	1	0.029949564678613	0
418	0	[519.1999999992549]	1	0	0.411606868308618	0.588393131691381	57	0	5	9	0	1	0.176786263382763	1
418	1	[627.9000000022352]	1	1	0.507898189865823	0.492101810134176	73	1	6	9	0	1	0.015796379731647	1
418	0	[516.6000000014901]	1	0	0.49205250601099	0.507947493989009	73	1	7	9	0	1	0.015894987978019	1
418	1	[546.1000000014901]	1	1	0.585325588562621	0.414674411437378	76	0	8	9	0	1	0.170651177125243	1
418	0	[623.3000000007451]	1	0	0.459467323588231	0.540532676411768	76	1	9	9	0	1	0.0810653528235371	1
418	1	[446.5]	1	1	0.553054698735735	0.446945301264264	76	1	10	9	0	1	0.106109397471471	1
418	0	[375.69999999925494]	1	0	0.431808775409225	0.568191224590774	75	1	11	9	0	1	0.136382449181549	1
418	0	[473]	1	0	0.461213639846264	0.538786360153735	78	1	12	9	0	1	0.077572720307471	1
418	1	[807.6999999992549]	1	1	0.558697311375262	0.441302688624737	78	1	13	9	0	1	0.117394622750525	1
418	1	[443.0999999977648]	1	1	0.582440910953183	0.417559089046816	77	1	14	9	0	1	0.164881821906367	1
418	1	[687.6000000014901]	1	1	0.551730391435832	0.448269608564167	83	1	15	9	0	1	0.103460782871665	1
418	0	[605.3999999985099]	1	0	0.463553845408194	0.536446154591805	82	1	16	9	0	1	0.072892309183611	1
418	1	[355.19999999925494]	1	0	0.41363427658724	0.586365723412759	73	1	17	9	0	1	0.172731446825519	0
418	0	[410.5]	1	0	0.412806697218416	0.587193302781583	73	1	18	9	0	1	0.174386605563167	1
418	1	[406.6000000014901]	1	1	0.585679648512565	0.414320351487434	85	1	19	9	0	1	0.171359297025131	1
418	0	[388.5]	1	0	0.467342786117346	0.532657213882653	69	0	20	9	0	1	0.065314427765307	1
418	1	[395.69999999925494]	1	1	0.565081093537713	0.434918906462286	83	1	21	9	0	1	0.130162187075427	1
418	1	[398]	1	1	0.555422777269192	0.444577222730807	74	0	22	9	0	1	0.110845554538385	1
418	1	[392.69999999925494]	1	1	0.503398253199945	0.496601746800054	77	1	23	9	0	1	0.00679650639989104	1
418	1	[421.80000000074506]	1	1	0.54712116708758	0.452878832912419	78	0	24	9	0	1	0.094242334175161	1
418	0	[522.3000000007451]	1	0	0.46726838268357	0.532731617316429	81	0	25	9	0	1	0.065463234632859	1
418	1	[797.8000000007451]	3	1	0.86433951057573	0.135660489424269	20	0	1	10	0	1	0.728679021151461	1
418	0	[365.80000000074506]	3	0	0.141952342629741	0.858047657370258	50	1	2	10	0	1	0.716095314740517	1
418	1	[485.80000000074506]	3	1	0.874817239509178	0.125182760490821	67	1	3	10	0	1	0.749634479018357	1
418	1	[420.69999999925494]	3	1	0.898857649136137	0.101142350863862	61	0	4	10	0	1	0.797715298272275	1
418	1	[399.6000000014901]	3	1	0.872898560390886	0.127101439609113	69	1	5	10	0	1	0.745797120781773	1
418	0	[569.7000000029802]	3	0	0.118759643637877	0.881240356362122	58	0	6	10	0	1	0.762480712724245	1
418	0	[449.80000000074506]	3	0	0.0560079994600069	0.943992000539993	64	1	7	10	0	1	0.887984001079986	1
418	0	[377.4000000022352]	3	0	0.104925205744189	0.89507479425581	63	0	8	10	0	1	0.790149588511621	1
418	0	[425.30000000074506]	3	1	0.870367273308701	0.129632726691298	63	0	9	10	0	1	0.740734546617403	0
418	0	[365.30000000074506]	3	1	0.860477741175191	0.139522258824808	67	0	10	10	0	1	0.720955482350383	0
418	0	[619.1000000014901]	3	0	0.13689696716711	0.863103032832889	67	1	11	10	0	1	0.726206065665779	1
418	0	[349.79999999701977]	3	0	0.0902385311035015	0.909761468896498	67	1	12	10	0	1	0.819522937792996	1
418	0	[324.30000000074506]	3	0	0.0643677784941695	0.93563222150583	67	1	13	10	0	1	0.871264443011661	1
418	0	[308.80000000074506]	3	0	0.130012804974052	0.869987195025947	65	1	14	10	0	1	0.739974390051895	1
418	1	[386.19999999925494]	3	1	0.871417163256893	0.128582836743106	76	1	15	10	0	1	0.742834326513787	1
418	1	[367.19999999925494]	3	1	0.867101607553384	0.132898392446615	85	1	16	10	0	1	0.734203215106769	1
418	0	[506.5]	3	0	0.0518847715938112	0.948115228406188	90	1	17	10	0	1	0.896230456812377	1
418	1	[368.79999999701977]	3	1	0.886803823017424	0.113196176982575	93	1	18	10	0	1	0.773607646034849	1
418	0	[441.20000000298023]	3	0	0.0631884036192781	0.936811596380721	93	1	19	10	0	1	0.873623192761443	1
418	1	[366.70000000298023]	3	1	0.948678857247242	0.0513211427527573	83	0	20	10	0	1	0.897357714494485	1
418	0	[410.79999999701977]	3	0	0.0800799556244486	0.919920044375551	69	0	21	10	0	1	0.839840088751102	1
418	1	[377.69999999925494]	3	1	0.874078339207404	0.125921660792596	71	1	22	10	0	1	0.748156678414808	1
418	0	[410.8999999985099]	3	0	0.104736765272228	0.895263234727771	79	1	23	10	0	1	0.790526469455543	1
418	1	[387.19999999925494]	3	1	0.860323902030032	0.139676097969967	73	0	24	10	0	1	0.720647804060065	1
418	1	[363.80000000074506]	3	1	0.928564576778041	0.071435423221958	71	1	25	10	0	1	0.857129153556083	1
418	1	[389.29999999701977]	1	1	0.564045428611598	0.435954571388401	50	0	1	11	0	0	0.128090857223197	1
418	0	[463.5]	1	0	0.407902768229311	0.592097231770688	46	1	2	11	0	0	0.184194463541377	1
418	1	[373.8999999985099]	1	0	0.401240512211239	0.59875948778876	58	1	3	11	0	0	0.197518975577521	0
418	1	[614.0999999977648]	1	0	0.492757963872648	0.507242036127352	50	0	4	11	0	0	0.014484072254704	0
418	1	[818.5]	1	0	0.496399367999604	0.503600632000395	59	1	5	11	0	0	0.00720126400079096	0
418	1	[625.8000000007451]	1	1	0.506705105798003	0.493294894201996	60	1	6	11	0	0	0.013410211596007	1
418	0	[474.20000000298023]	1	1	0.577105356869605	0.422894643130394	70	1	7	11	0	0	0.154210713739211	0
418	0	[733.9000000022352]	1	0	0.481831193212753	0.518168806787247	67	1	8	11	0	0	0.036337613574494	1
418	0	[441]	1	1	0.586179870066706	0.413820129933293	46	0	9	11	0	0	0.172359740133413	0
418	0	[590.0999999977648]	1	1	0.561749099284207	0.438250900715792	42	0	10	11	0	0	0.123498198568415	0
418	1	[462.69999999925494]	1	1	0.527779078742668	0.472220921257331	38	1	11	11	0	0	0.055558157485337	1
418	0	[469.30000000074506]	1	0	0.46958047650669	0.530419523493309	33	1	12	11	0	0	0.060839046986619	1
418	0	[589.1999999992549]	1	0	0.493548191817315	0.506451808182684	32	1	13	11	0	0	0.012903616365369	1
418	0	[821.3000000007451]	1	0	0.494308777722086	0.505691222277913	36	1	14	11	0	0	0.011382444555827	1
418	1	[985]	1	1	0.594758569286474	0.405241430713525	32	1	15	11	0	0	0.189517138572949	1
418	0	[632.4000000022352]	1	0	0.448806947424752	0.551193052575247	31	1	16	11	0	0	0.102386105150495	1
418	1	[745.4000000022352]	1	1	0.508252806741472	0.491747193258527	63	1	17	11	0	0	0.016505613482945	1
418	1	[672.1000000014901]	1	0	0.485041090119581	0.514958909880418	30	0	18	11	0	0	0.029917819760837	0
418	1	[558.5999999977648]	1	0	0.431268651624912	0.568731348375087	38	1	19	11	0	0	0.137462696750175	0
418	0	[509.6000000014901]	1	0	0.478539922866745	0.521460077133254	35	1	20	11	0	0	0.042920154266509	1
418	1	[450.3999999985099]	1	0	0.418409963982911	0.581590036017088	29	1	21	11	0	0	0.163180072034177	0
418	0	[569.1999999992549]	1	1	0.589217043029919	0.41078295697008	35	0	22	11	0	0	0.178434086059839	0
418	0	[691.8999999985099]	1	1	0.500932035276283	0.499067964723716	34	1	23	11	0	0	0.00186407055256704	0
418	0	[648]	1	1	0.578650274098587	0.421349725901412	29	0	24	11	0	0	0.157300548197175	0
418	1	[516.0999999977648]	1	1	0.571191948534909	0.428808051465091	35	0	25	11	0	0	0.142383897069818	1
418	1	[388.19999999925494]	1	0	0.424040870640956	0.575959129359044	24	0	1	12	1	1	0.151918258718088	1
418	0	[413.80000000074506]	1	1	0.576915934023875	0.423084065976124	11	0	2	12	1	1	0.153831868047751	1
418	0	[501.5]	1	0	0.450275033425815	0.549724966574184	23	0	3	12	1	1	0.099449933148369	0
418	1	[568.0999999977648]	1	1	0.530691242719044	0.469308757280955	41	0	4	12	1	1	0.061382485438089	0
418	1	[564.3999999985099]	1	0	0.499288799615238	0.500711200384761	36	0	5	12	1	1	0.00142240076952305	1
418	1	[731.7000000029802]	1	0	0.423767978530114	0.576232021469885	50	1	6	12	1	1	0.152464042939771	1
418	0	[464.19999999925494]	1	1	0.548525771442795	0.451474228557204	39	0	7	12	1	1	0.097051542885591	1
418	1	[464.4000000022352]	1	0	0.469240795896764	0.530759204103235	61	1	8	12	1	1	0.061518408206471	1
418	1	[347.19999999925494]	1	0	0.403138551369371	0.596861448630628	67	1	9	12	1	1	0.193722897261257	1
418	1	[365.80000000074506]	1	0	0.408327897456341	0.591672102543659	80	1	10	12	1	1	0.183344205087318	1
418	0	[537.4000000022352]	1	1	0.512034857440085	0.487965142559914	76	1	11	12	1	1	0.024069714880171	1
418	0	[466.8999999985099]	1	1	0.593346737577187	0.406653262422812	72	1	12	12	1	1	0.186693475154375	1
418	1	[346.19999999925494]	1	0	0.448266437386933	0.551733562613066	71	1	13	12	1	1	0.103467125226133	1
418	0	[600.5]	1	1	0.587470913457271	0.412529086542728	70	1	14	12	1	1	0.174941826914543	1
418	1	[608.6999999992549]	1	0	0.468853832229668	0.531146167770331	71	1	15	12	1	1	0.062292335540663	1
418	0	[452.6000000014901]	1	1	0.595853776987213	0.404146223012787	73	1	16	12	1	1	0.191707553974426	1
418	1	[420.70000000298023]	1	0	0.403559616777466	0.596440383222533	74	0	17	12	1	1	0.192880766445067	1
418	0	[534.6000000014901]	1	1	0.551593201999287	0.448406798000713	75	1	18	12	1	1	0.103186403998574	1
418	1	[442.4000000022352]	1	0	0.461487115192129	0.53851288480787	64	1	19	12	1	1	0.077025769615741	1
418	0	[441.5]	1	1	0.594766651648096	0.405233348351903	54	0	20	12	1	1	0.189533303296193	1
418	0	[393.5]	1	1	0.576349445270556	0.423650554729443	64	1	21	12	1	1	0.152698890541113	1
418	0	[442.4000000022352]	1	1	0.572610670702877	0.427389329297122	53	0	22	12	1	1	0.145221341405755	1
418	1	[343.30000000074506]	1	0	0.442719174539197	0.557280825460802	55	0	23	12	1	1	0.114561650921605	1
418	0	[455]	1	1	0.578396927075704	0.421603072924295	57	0	24	12	1	1	0.156793854151409	1
418	0	[343]	1	1	0.568413095134713	0.431586904865286	60	0	25	12	1	1	0.136826190269427	1
