ID	choice	rt	condition_int	state	contrast_left	contrast_right	reward	trials	blocks	contrast	ecoperf
172	0	431.199999988079	2	1	0.531666454871873	0.468333545128126	1	1	1	0	0
172	0	592.599999964237	2	0	0.466911732256815	0.533088267743184	0	2	1	0	1
172	0	432.100000023841	2	0	0.456595931288341	0.543404068711658	0	3	1	0	1
172	1	430.399999976158	2	1	0.556061671390305	0.443938328609694	1	4	1	0	1
172	1	487.899999976158	2	1	0.561806297440926	0.438193702559073	1	5	1	0	1
172	0	393.80000001192	2	0	0.421033939939986	0.578966060060013	0	6	1	0	1
172	1	507.699999988079	2	1	0.566479082785582	0.433520917214417	1	7	1	0	1
172	1	456.600000023841	2	1	0.558651117546578	0.441348882453421	1	8	1	0	1
172	0	412.600000023841	2	0	0.426817192836574	0.573182807163425	0	9	1	0	1
172	0	433.80000001192	2	0	0.47797929853065	0.522020701469349	0	10	1	0	1
172	0	332.5	2	0	0.484242986507531	0.515757013492468	0	11	1	0	1
172	0	332.199999988079	2	0	0.457317724356241	0.542682275643758	0	12	1	0	1
172	1	499.399999976158	2	1	0.532557619319719	0.46744238068028	1	13	1	0	1
172	0	331.699999988079	2	1	0.516124278786092	0.483875721213907	1	14	1	0	0
172	0	452.199999988079	2	0	0.436770614911275	0.563229385088724	0	15	1	0	1
172	1	610.600000023841	2	1	0.535962099624937	0.464037900375063	1	16	1	0	1
172	0	528.099999964237	2	0	0.491653572468332	0.508346427531667	0	17	1	0	1
172	0	413	2	0	0.473291866661496	0.526708133338504	0	18	1	0	1
172	0	387.600000023841	2	0	0.487042861927119	0.51295713807288	0	19	1	0	1
172	1	502.80000001192	2	1	0.555396011370089	0.444603988629911	1	20	1	0	1
172	1	482.199999988079	2	1	0.543372992762451	0.456627007237548	1	21	1	0	1
172	0	419.80000001192	2	0	0.422959320059611	0.577040679940388	0	22	1	0	1
172	1	389	2	1	0.574426702767593	0.425573297232407	1	23	1	0	1
172	1	422.30000001192	2	1	0.574800720515003	0.425199279484996	1	24	1	0	1
172	0	523.700000047683	2	0	0.465834375167778	0.534165624832221	0	25	1	0	1
172	1	567.599999964237	1	1	0.557025734373815	0.442974265626184	0	1	2	1	0
172	0	381.5	1	1	0.568882638152758	0.431117361847241	0	2	2	1	1
172	1	440	1	0	0.448470298687057	0.551529701312942	1	3	2	1	1
172	0	354.899999976158	1	1	0.536779393657284	0.463220606342715	0	4	2	1	1
172	1	610.5	1	0	0.45044343291784	0.549556567082159	1	5	2	1	1
172	1	548.899999976158	1	0	0.459170459863174	0.540829540136825	1	6	2	1	1
172	0	401.5	1	1	0.558743378214084	0.441256621785915	0	7	2	1	1
172	1	524.30000001192	1	0	0.463171160687825	0.536828839312174	1	8	2	1	1
172	0	385	1	1	0.539159968367386	0.460840031632613	0	9	2	1	1
172	0	579.899999976158	1	1	0.509752434803996	0.490247565196003	0	10	2	1	1
172	0	394.900000035762	1	1	0.569063889961104	0.430936110038895	0	11	2	1	1
172	0	962.599999964237	1	0	0.493053046909843	0.506946953090156	1	12	2	1	0
172	1	477.299999952316	1	1	0.513269711684367	0.486730288315632	0	13	2	1	0
172	0	601.600000023841	1	0	0.474231390290911	0.525768609709088	1	14	2	1	0
172	1	516.900000035762	1	0	0.438319785155052	0.561680214844947	1	15	2	1	1
172	1	528.399999976158	1	1	0.56246229046404	0.437537709535959	0	16	2	1	0
172	1	457.899999976158	1	0	0.44723210969394	0.552767890306059	1	17	2	1	1
172	1	802.099999964237	1	0	0.474678070479657	0.525321929520342	1	18	2	1	1
172	1	421.900000035762	1	0	0.438579270938727	0.561420729061272	1	19	2	1	1
172	0	403.5	1	1	0.523958948595539	0.47604105140446	0	20	2	1	1
172	1	427.199999988079	1	0	0.43289910668882	0.567100893311179	1	21	2	1	1
172	1	363.199999988079	1	0	0.437015746370693	0.562984253629306	1	22	2	1	1
172	1	623.100000023841	1	0	0.473600604112751	0.526399395887248	1	23	2	1	1
172	1	510.5	1	1	0.570783238391049	0.42921676160895	0	24	2	1	0
172	0	600.600000023841	1	1	0.510982138098918	0.489017861901081	0	25	2	1	1
172	0	409.5	4	1	0.821911440270195	0.178088559729804	0	1	3	1	1
172	0	353.30000001192	4	1	0.850113409937635	0.149886590062364	0	2	3	1	1
172	1	365.299999952316	4	0	0.156097417688333	0.843902582311666	1	3	3	1	1
172	0	301	4	1	0.840243209119755	0.159756790880244	0	4	3	1	1
172	0	376.099999964237	4	1	0.874663830908371	0.125336169091628	0	5	3	1	1
172	0	323.5	4	1	0.867485368023565	0.132514631976434	0	6	3	1	1
172	0	303.399999976158	4	1	0.823172549776207	0.176827450223792	0	7	3	1	1
172	1	304.699999988079	4	0	0.145737898467216	0.854262101532783	1	8	3	1	1
172	0	281	4	0	0.185091579265649	0.814908420734351	1	9	3	1	0
172	1	335.700000047683	4	0	0.171757737678822	0.828242262321177	1	10	3	1	1
172	1	368.899999976158	4	0	0.132949794405826	0.867050205594173	1	11	3	1	1
172	1	310.80000001192	4	0	0.189759352945994	0.810240647054005	1	12	3	1	1
172	1	357.399999976158	4	0	0.197157144571827	0.802842855428172	1	13	3	1	1
172	0	394.80000001192	4	1	0.806283552563776	0.193716447436223	0	14	3	1	1
172	1	305.200000047683	4	0	0.128987941676571	0.871012058323428	1	15	3	1	1
172	1	391.80000001192	4	1	0.858089177058311	0.141910822941688	0	16	3	1	0
172	1	404.899999976158	4	1	0.87666100801677	0.123338991983229	0	17	3	1	0
172	1	357.699999988079	4	0	0.153117467362303	0.846882532637696	1	18	3	1	1
172	1	385.199999988079	4	0	0.174902574535386	0.825097425464614	1	19	3	1	1
172	1	340.30000001192	4	0	0.17744410938055	0.82255589061945	1	20	3	1	1
172	1	288.199999988079	4	0	0.161621719499022	0.838378280500977	1	21	3	1	1
172	1	321.80000001192	4	0	0.141709170028704	0.858290829971295	1	22	3	1	1
172	0	317.400000035762	4	1	0.852974218495182	0.147025781504817	0	23	3	1	1
172	0	347.599999964237	4	1	0.861374255739192	0.138625744260807	0	24	3	1	1
172	0	369	4	1	0.800693897599407	0.199306102400592	0	25	3	1	1
172	1	369.30000001192	3	0	0.189123271205733	0.810876728794266	1	1	4	1	1
172	0	370.099999964237	3	0	0.124788553370489	0.87521144662951	1	2	4	1	0
172	0	381.80000001192	3	1	0.861462613001534	0.138537386998465	0	3	4	1	1
172	0	436.399999976158	3	0	0.192040845657955	0.807959154342044	1	4	4	1	0
172	0	393.699999988079	3	1	0.803879796797949	0.19612020320205	0	5	4	1	1
172	1	332.199999988079	3	1	0.804311846760355	0.195688153239644	0	6	4	1	0
172	1	537.299999952316	3	0	0.126951619073635	0.873048380926364	1	7	4	1	1
172	1	491.700000047683	3	1	0.802808800453559	0.19719119954644	0	8	4	1	0
172	1	355.30000001192	3	1	0.861186331400224	0.138813668599775	0	9	4	1	0
172	1	335	3	0	0.136870326950939	0.86312967304906	1	10	4	1	1
172	0	315.399999976158	3	1	0.823491303813	0.176508696186999	0	11	4	1	1
172	1	253.100000023841	3	1	0.873131786168892	0.126868213831107	0	12	4	1	0
172	0	224.199999988079	3	1	0.874311669353311	0.125688330646688	0	13	4	1	1
172	1	290.699999988079	3	1	0.838302693268052	0.161697306731947	0	14	4	1	0
172	0	241.199999988079	3	0	0.154493198142894	0.845506801857105	1	15	4	1	0
172	1	263.299999952316	3	0	0.178415972520463	0.821584027479536	1	16	4	1	1
172	0	249.099999964237	3	0	0.167639296538686	0.832360703461313	1	17	4	1	0
172	0	373.599999964237	3	1	0.817271824696984	0.182728175303015	0	18	4	1	1
172	0	345.400000035762	3	1	0.846632730739488	0.153367269260511	0	19	4	1	1
172	1	385.399999976158	3	0	0.176057882778582	0.823942117221417	1	20	4	1	1
172	0	344.699999988079	3	0	0.13326326647285	0.86673673352715	1	21	4	1	0
172	1	284.899999976158	3	0	0.120589242910666	0.879410757089333	1	22	4	1	1
172	0	424.900000035762	3	1	0.830050633390582	0.169949366609417	0	23	4	1	1
172	0	393.899999976158	3	0	0.19346158544886	0.806538414551139	1	24	4	1	0
172	0	327.5	3	1	0.86814529721307	0.131854702786929	0	25	4	1	1
172	0	416.899999976158	4	1	0.839735968314408	0.160264031685591	1	1	5	0	0
172	1	411	4	0	0.18123830099903	0.818761699000969	0	2	5	0	0
172	0	347.099999964237	4	0	0.19251941997069	0.807480580029309	0	3	5	0	1
172	1	398.30000001192	4	1	0.821802648836335	0.178197351163664	1	4	5	0	1
172	1	401.5	4	1	0.8406316679644	0.159368332035599	1	5	5	0	1
172	0	311.699999988079	4	0	0.162009651723766	0.837990348276233	0	6	5	0	1
172	0	399.699999988079	4	0	0.129889308057959	0.87011069194204	0	7	5	0	1
172	1	341.899999976158	4	1	0.869498780059833	0.130501219940166	1	8	5	0	1
172	1	575.399999976158	4	1	0.831159349771611	0.168840650228389	1	9	5	0	1
172	0	311.199999988079	4	0	0.154444139745341	0.845555860254658	0	10	5	0	1
172	0	425.5	4	0	0.136388914361134	0.863611085638865	0	11	5	0	1
172	0	348.699999988079	4	0	0.138014787581771	0.861985212418228	0	12	5	0	1
172	0	341.199999988079	4	0	0.158970331600868	0.841029668399131	0	13	5	0	1
172	0	345.400000035762	4	0	0.194401241951358	0.805598758048642	0	14	5	0	1
172	1	374.099999964237	4	1	0.829386938089819	0.17061306191018	1	15	5	0	1
172	0	303.600000023841	4	0	0.132072711837986	0.867927288162013	0	16	5	0	1
172	1	293.899999976158	4	1	0.805213092864521	0.194786907135478	1	17	5	0	1
172	1	365.100000023841	4	1	0.8378263598314	0.162173640168599	1	18	5	0	1
172	1	508.700000047683	4	1	0.87834479879849	0.121655201201509	1	19	5	0	1
172	0	389.399999976158	4	0	0.169672337669835	0.830327662330164	0	20	5	0	1
172	1	383.700000047683	4	1	0.825724393952226	0.174275606047773	1	21	5	0	1
172	0	346	4	0	0.191750423060064	0.808249576939935	0	22	5	0	1
172	1	278.5	4	1	0.845713702645216	0.154286297354783	1	23	5	0	1
172	0	272.100000023841	4	1	0.832441712021993	0.167558287978006	1	24	5	0	0
172	1	330.600000023841	4	1	0.825499855429213	0.174500144570786	1	25	5	0	1
172	1	929.400000035762	2	0	0.498189042013166	0.501810957986833	1	1	6	1	1
172	1	561.699999988079	2	0	0.487667893085403	0.512332106914596	1	2	6	1	1
172	0	693.30000001192	2	1	0.577754581959072	0.422245418040927	0	3	6	1	1
172	1	665.899999976158	2	0	0.466534764345317	0.533465235654683	1	4	6	1	1
172	1	461.5	2	0	0.471384418321523	0.528615581678476	1	5	6	1	1
172	0	348.400000035762	2	1	0.564640312134009	0.43535968786599	0	6	6	1	1
172	1	483	2	0	0.428040012830915	0.571959987169084	1	7	6	1	1
172	0	354	2	1	0.531736075391153	0.468263924608846	0	8	6	1	1
172	0	521.900000035762	2	1	0.554346597860105	0.445653402139894	0	9	6	1	1
172	0	403.600000023841	2	1	0.511685446985407	0.488314553014592	0	10	6	1	1
172	0	302.5	2	0	0.471848594449415	0.528151405550584	1	11	6	1	0
172	0	842.199999988079	2	0	0.498356432698673	0.501643567301326	1	12	6	1	0
172	0	481.299999952316	2	1	0.532648861079663	0.467351138920336	0	13	6	1	1
172	0	426.600000023841	2	1	0.511550910107714	0.488449089892285	0	14	6	1	1
172	1	368.399999976158	2	0	0.461306379162921	0.538693620837078	1	15	6	1	1
172	0	471.599999964237	2	1	0.510731206035707	0.489268793964293	0	16	6	1	1
172	0	387.80000001192	2	1	0.568907398990348	0.431092601009651	0	17	6	1	1
172	1	385.5	2	0	0.447060896467851	0.552939103532148	1	18	6	1	1
172	0	308.30000001192	2	1	0.541045914040903	0.458954085959096	0	19	6	1	1
172	0	357.5	2	1	0.573404400316659	0.42659559968334	0	20	6	1	1
172	0	341.399999976158	2	1	0.554149196333457	0.445850803666542	0	21	6	1	1
172	0	412	2	0	0.482099862140012	0.517900137859987	1	22	6	1	0
172	1	388.399999976158	2	0	0.431206820314349	0.56879317968565	1	23	6	1	1
172	1	405.399999976158	2	0	0.423691624950849	0.57630837504915	1	24	6	1	1
172	0	652	2	0	0.496177834115292	0.503822165884707	1	25	6	1	0
172	0	388.199999988079	3	1	0.843081454074131	0.156918545925868	1	1	7	0	0
172	0	344.700000047683	3	1	0.849808778822884	0.150191221177115	1	2	7	0	0
172	1	584.600000023841	3	0	0.133449747476994	0.866550252523005	0	3	7	0	0
172	0	355.400000035762	3	0	0.160680334205442	0.839319665794557	0	4	7	0	1
172	0	320.80000001192	3	0	0.146743001815169	0.85325699818483	0	5	7	0	1
172	1	373.400000035762	3	1	0.830868565644107	0.169131434355892	1	6	7	0	1
172	1	410.100000023841	3	0	0.181402940271805	0.818597059728194	0	7	7	0	0
172	1	648	3	0	0.13489151511774	0.865108484882259	0	8	7	0	0
172	0	280.30000001192	3	1	0.817717941530366	0.182282058469633	1	9	7	0	0
172	1	347.699999988079	3	0	0.136509810826022	0.863490189173977	0	10	7	0	0
172	0	305.099999964237	3	0	0.164723000656129	0.83527699934387	0	11	7	0	1
172	0	245.30000001192	3	1	0.855003529034362	0.144996470965637	1	12	7	0	0
172	1	304.399999976158	3	0	0.145615124065665	0.854384875934334	0	13	7	0	0
172	0	215.400000035762	3	1	0.845505928412754	0.154494071587245	1	14	7	0	0
172	0	294.900000035762	3	0	0.159633748483908	0.840366251516091	0	15	7	0	1
172	0	264.80000001192	3	0	0.189118043868868	0.810881956131131	0	16	7	0	1
172	0	370.5	3	1	0.837726276937098	0.162273723062901	1	17	7	0	0
172	0	486.099999964237	3	1	0.85334218081631	0.146657819183689	1	18	7	0	0
172	1	381.399999976158	3	1	0.86485456576571	0.135145434234289	1	19	7	0	1
172	1	330.599999964237	3	1	0.836404848742512	0.163595151257487	1	20	7	0	1
172	0	457.200000047683	3	1	0.808573471330051	0.191426528669948	1	21	7	0	0
172	1	919	3	0	0.165912170334877	0.834087829665122	0	22	7	0	0
172	1	536	3	1	0.800722814046926	0.199277185953073	1	23	7	0	1
172	0	419	3	1	0.868747818889878	0.131252181110121	1	24	7	0	0
172	1	684.200000047683	3	0	0.173359360213148	0.826640639786851	0	25	7	0	0
172	0	527.899999976158	1	1	0.552425800162207	0.447574199837792	1	1	8	0	0
172	0	678	1	0	0.471959828506084	0.528040171493915	0	2	8	0	1
172	0	442.199999988079	1	1	0.549236332030294	0.450763667969705	1	3	8	0	0
172	1	602.899999976158	1	0	0.495916326386741	0.504083673613258	0	4	8	0	0
172	0	458.30000001192	1	1	0.549422797608395	0.450577202391604	1	5	8	0	0
172	1	610.80000001192	1	1	0.521997901598965	0.478002098401034	1	6	8	0	1
172	1	656.199999988079	1	0	0.447629513746649	0.55237048625335	0	7	8	0	0
172	0	419	1	0	0.484860764998357	0.515139235001642	0	8	8	0	1
172	0	546.30000001192	1	1	0.534144007145784	0.465855992854215	1	9	8	0	0
172	1	412	1	0	0.436422239179153	0.563577760820846	0	10	8	0	0
172	1	421.80000001192	1	0	0.444014693092198	0.555985306907801	0	11	8	0	0
172	0	231.199999988079	1	0	0.4653317156938	0.534668284306199	0	12	8	0	1
172	1	225	1	1	0.526325488459962	0.473674511540037	1	13	8	0	1
172	1	576	1	1	0.528546129406161	0.471453870593838	1	14	8	0	1
172	1	715.699999988079	1	0	0.488601644817296	0.511398355182703	0	15	8	0	0
172	0	443.699999988079	1	1	0.55230602412482	0.44769397587518	1	16	8	0	0
172	1	801.599999964237	1	0	0.494983316178698	0.505016683821301	0	17	8	0	0
172	1	3	1	0	0.497593323620837	0.502406676379162	0	18	8	0	0
172	1	600.399999976158	1	0	0.445297034058817	0.554702965941182	0	19	8	0	0
172	0	483.100000023841	1	1	0.504817291789968	0.495182708210031	1	20	8	0	0
172	1	404	1	1	0.520655480530376	0.479344519469623	1	21	8	0	1
172	0	732.5	1	0	0.490755717124789	0.50924428287521	0	22	8	0	1
172	0	482.900000035762	1	1	0.545671150175396	0.454328849824603	1	23	8	0	0
172	1	329.699999988079	1	1	0.572365413601417	0.427634586398583	1	24	8	0	1
172	1	528.30000001192	1	1	0.560735137162038	0.439264862837961	1	25	8	0	1
172	1	504.80000001192	4	0	0.186195465525762	0.813804534474237	0	1	9	0	0
172	0	389.30000001192	4	0	0.128004668259826	0.871995331740173	0	2	9	0	1
172	1	391.099999964237	4	1	0.836776616568857	0.163223383431142	1	3	9	0	1
172	0	339.5	4	0	0.198564268027824	0.801435731972175	0	4	9	0	1
172	1	346.399999976158	4	1	0.82025006108046	0.179749938919539	1	5	9	0	1
172	0	361	4	0	0.145676726456878	0.854323273543121	0	6	9	0	1
172	0	350.700000047683	4	0	0.158322357247691	0.841677642752308	0	7	9	0	1
172	0	393.80000001192	4	0	0.199105099054433	0.800894900945566	0	8	9	0	1
172	0	384.80000001192	4	0	0.177636215683976	0.822363784316023	0	9	9	0	1
172	0	299.099999964237	4	1	0.804693196203149	0.19530680379685	1	10	9	0	0
172	1	302.200000047683	4	1	0.844539196265089	0.15546080373491	1	11	9	0	1
172	1	412.699999988079	4	1	0.833992804783128	0.166007195216871	1	12	9	0	1
172	1	302.199999988079	4	1	0.870980253271274	0.129019746728725	1	13	9	0	1
172	1	292.900000035762	4	1	0.803593897983333	0.196406102016666	1	14	9	0	1
172	1	240.400000035762	4	0	0.148405549014968	0.851594450985031	0	15	9	0	0
172	0	393.900000035762	4	0	0.165367333899639	0.83463266610036	0	16	9	0	1
172	1	399.5	4	1	0.861329002959231	0.138670997040768	1	17	9	0	1
172	1	401.199999988079	4	1	0.836521006885811	0.163478993114188	1	18	9	0	1
172	0	340.199999988079	4	0	0.151747434922961	0.848252565077038	0	19	9	0	1
172	0	344.600000023841	4	0	0.173553054112687	0.826446945887312	0	20	9	0	1
172	1	401.099999964237	4	1	0.865336950373787	0.134663049626212	1	21	9	0	1
172	0	241.80000001192	4	1	0.871413700130725	0.128586299869274	1	22	9	0	0
172	1	390.799999952316	4	0	0.130108052111829	0.86989194788817	0	23	9	0	0
172	1	396.5	4	0	0.192011586527965	0.807988413472034	0	24	9	0	0
172	1	360.899999976158	4	1	0.809404257242707	0.190595742757292	1	25	9	0	1
172	1	640.199999988079	1	0	0.468407765277288	0.531592234722712	0	1	10	0	0
172	0	446.199999988079	1	1	0.541840428542992	0.458159571457007	1	2	10	0	0
172	0	392.200000047683	1	0	0.498026103029695	0.501973896970304	0	3	10	0	1
172	0	341.899999976158	1	0	0.499909339099078	0.500090660900921	0	4	10	0	1
172	0	331.699999988079	1	1	0.509919911386264	0.490080088613736	1	5	10	0	0
172	1	462.30000001192	1	0	0.464818548536999	0.535181451463	0	6	10	0	0
172	0	326.5	1	0	0.491240419863797	0.508759580136202	0	7	10	0	1
172	1	318	1	0	0.483558928070153	0.516441071929846	0	8	10	0	0
172	0	265.5	1	0	0.434278192712805	0.565721807287194	0	9	10	0	1
172	0	427	1	1	0.52760794395753	0.472392056042469	1	10	10	0	0
172	0	440.799999952316	1	1	0.544837503230958	0.455162496769041	1	11	10	0	0
172	1	576.30000001192	1	0	0.468719962118995	0.531280037881004	0	12	10	0	0
172	1	416.899999976158	1	1	0.55404009552442	0.445959904475579	1	13	10	0	1
172	1	472.30000001192	1	0	0.444857287127786	0.555142712872213	0	14	10	0	0
172	1	555.5	1	0	0.485588447545421	0.514411552454578	0	15	10	0	0
172	0	482.100000023841	1	1	0.525107362801011	0.474892637198988	1	16	10	0	0
172	0	463.299999952316	1	1	0.575700258744197	0.424299741255802	1	17	10	0	0
172	0	216.100000023841	1	1	0.521693209670643	0.478306790329356	1	18	10	0	0
172	0	194.30000001192	1	1	0.54624681609385	0.453753183906149	1	19	10	0	0
172	1	82.3999999761581	1	1	0.520496631525572	0.479503368474427	1	20	10	0	1
172	0	238.399999976158	1	0	0.446328816643696	0.553671183356303	0	21	10	0	1
172	0	283.100000023841	1	1	0.550972182407589	0.44902781759241	1	22	10	0	0
172	0	254	1	0	0.421601075614322	0.578398924385677	0	23	10	0	1
172	0	340.899999976158	1	0	0.426593996998043	0.573406003001956	0	24	10	0	1
172	0	560.400000035762	1	1	0.532942127936464	0.467057872063535	1	25	10	0	0
172	0	443	2	1	0.500622071790977	0.499377928209022	0	1	11	1	1
172	0	440	2	1	0.562903779701229	0.43709622029877	0	2	11	1	1
172	0	464.5	2	0	0.494024030131881	0.505975969868118	1	3	11	1	0
172	1	511.100000023841	2	0	0.457610343617969	0.542389656382031	1	4	11	1	1
172	1	395.5	2	0	0.451088227918541	0.548911772081458	1	5	11	1	1
172	1	415.900000035762	2	0	0.46588645495347	0.53411354504653	1	6	11	1	1
172	1	378.100000023841	2	0	0.462017807656931	0.537982192343068	1	7	11	1	1
172	1	379.599999964237	2	0	0.42956119575455	0.570438804245449	1	8	11	1	1
172	0	577.80000001192	2	1	0.554896280440617	0.445103719559383	0	9	11	1	1
172	0	435.900000035762	2	1	0.575698750133116	0.424301249866883	0	10	11	1	1
172	0	455.899999976158	2	1	0.527539692138057	0.472460307861942	0	11	11	1	1
172	0	333.199999988079	2	1	0.552970523968951	0.447029476031048	0	12	11	1	1
172	1	505.80000001192	2	0	0.487436048031388	0.512563951968611	1	13	11	1	1
172	0	503.30000001192	2	0	0.494372754831128	0.505627245168871	1	14	11	1	0
172	1	508.199999988079	2	0	0.473939004789497	0.526060995210502	1	15	11	1	1
172	1	522	2	0	0.477610330330024	0.522389669669975	1	16	11	1	1
172	1	485.899999976158	2	0	0.45413737751513	0.545862622484869	1	17	11	1	1
172	0	386.899999976158	2	1	0.561181069263378	0.438818930736621	0	18	11	1	1
172	0	409.30000001192	2	1	0.537217567931243	0.462782432068756	0	19	11	1	1
172	1	590.100000023841	2	1	0.506460424678381	0.493539575321618	0	20	11	1	0
172	0	518.899999976158	2	1	0.513074400811818	0.486925599188181	0	21	11	1	1
172	1	459.100000023841	2	0	0.47317972747	0.526820272529999	1	22	11	1	1
172	0	406.299999952316	2	1	0.550168773063975	0.449831226936024	0	23	11	1	1
172	0	560.5	2	1	0.535295271662681	0.464704728337318	0	24	11	1	1
172	1	463.700000047683	2	0	0.470769018607417	0.529230981392582	1	25	11	1	1
172	1	535.699999988079	1	0	0.475534386763753	0.524465613236247	1	1	12	1	1
172	0	510.899999976158	1	0	0.425977626629231	0.574022373370768	1	2	12	1	0
172	1	549.5	1	0	0.494317725273485	0.505682274726514	1	3	12	1	1
172	0	431.299999952316	1	1	0.521919638843558	0.478080361156441	0	4	12	1	1
172	1	499.80000001192	1	0	0.423737760782265	0.576262239217734	1	5	12	1	1
172	0	398.699999988079	1	1	0.553534907349169	0.44646509265083	0	6	12	1	1
172	0	637.5	1	1	0.506166731827204	0.493833268172795	0	7	12	1	1
172	0	374.100000023841	1	0	0.479565410853776	0.520434589146223	1	8	12	1	0
172	0	358.30000001192	1	1	0.544012299849202	0.455987700150797	0	9	12	1	1
172	1	474.100000023841	1	0	0.451359761583871	0.548640238416128	1	10	12	1	1
172	1	461.600000023841	1	0	0.424766863875337	0.575233136124663	1	11	12	1	1
172	0	564.699999988079	1	0	0.493955178547299	0.5060448214527	1	12	12	1	0
172	1	425.80000001192	1	0	0.467184538434515	0.532815461565484	1	13	12	1	1
172	1	488.199999988079	1	0	0.452417975586352	0.547582024413647	1	14	12	1	1
172	0	382.199999988079	1	1	0.553795655868636	0.446204344131363	0	15	12	1	1
172	1	400.399999976158	1	1	0.563794317533831	0.436205682466168	0	16	12	1	0
172	1	386.100000023841	1	1	0.567763297291045	0.432236702708954	0	17	12	1	0
172	0	326.400000035762	1	1	0.577279232879055	0.422720767120944	0	18	12	1	1
172	1	324.100000023841	1	1	0.577586439544436	0.422413560455563	0	19	12	1	0
172	0	680	1	1	0.50746351334964	0.492536486650359	0	20	12	1	1
172	1	779.899999976158	1	0	0.476838115240305	0.523161884759694	1	21	12	1	1
172	0	614.100000023841	1	0	0.444399470541328	0.555600529458671	1	22	12	1	0
172	0	511.30000001192	1	0	0.499138164772922	0.500861835227077	1	23	12	1	0
172	0	345.699999988079	1	1	0.576503308113631	0.423496691886368	0	24	12	1	1
172	0	377.299999952316	1	1	0.576452894111325	0.423547105888674	0	25	12	1	1
172	0	505.30000001192	3	1	0.812370714182622	0.187629285817377	0	1	13	1	1
172	1	451.099999964237	3	0	0.17717617420155	0.822823825798449	1	2	13	1	1
172	1	381.799999952316	3	0	0.149792697959171	0.850207302040829	1	3	13	1	1
172	0	356.199999988079	3	0	0.146130349421452	0.853869650578547	1	4	13	1	0
172	1	309.799999952316	3	0	0.131678277611068	0.868321722388931	1	5	13	1	1
172	0	570	3	1	0.815287182560474	0.184712817439525	0	6	13	1	1
172	1	152.700000047683	3	1	0.803845711722383	0.196154288277616	0	7	13	1	0
172	0	335.599999964237	3	0	0.155481417670282	0.844518582329717	1	8	13	1	0
172	0	313.80000001192	3	1	0.847000546227368	0.152999453772631	0	9	13	1	1
172	1	364.30000001192	3	1	0.866937218834498	0.133062781165501	0	10	13	1	0
172	0	287.199999988079	3	1	0.854326247481521	0.145673752518478	0	11	13	1	1
172	1	348.700000047683	3	1	0.828854629089981	0.171145370910018	0	12	13	1	0
172	1	377.5	3	0	0.138524272843908	0.861475727156091	1	13	13	1	1
172	0	320.900000035762	3	0	0.194221864140143	0.805778135859856	1	14	13	1	0
172	0	300.30000001192	3	1	0.800839985179181	0.199160014820819	0	15	13	1	1
172	1	324.699999988079	3	1	0.858108971966463	0.141891028033536	0	16	13	1	0
172	1	411.900000035762	3	0	0.171119004221135	0.828880995778864	1	17	13	1	1
172	0	255.899999976158	3	1	0.858956009403137	0.141043990596862	0	18	13	1	1
172	1	285.699999988079	3	1	0.86534008794157	0.134659912058429	0	19	13	1	0
172	0	348	3	1	0.836184331121089	0.16381566887891	0	20	13	1	1
172	1	365.599999964237	3	1	0.831768739501139	0.16823126049886	0	21	13	1	0
172	1	394.100000023841	3	0	0.164791122422056	0.835208877577943	1	22	13	1	1
172	1	373.399999976158	3	0	0.159774022911808	0.840225977088191	1	23	13	1	1
172	1	364.399999976158	3	0	0.173390878245075	0.826609121754924	1	24	13	1	1
172	0	294.5	3	0	0.181819544445874	0.818180455554125	1	25	13	1	0
172	0	412.399999976158	3	1	0.836640824390334	0.163359175609665	1	1	14	0	0
172	1	302.900000035762	3	0	0.123089501480811	0.876910498519188	0	2	14	0	0
172	0	322.80000001192	3	1	0.865472790492014	0.134527209507985	1	3	14	0	0
172	0	370.599999964237	3	1	0.868467683921545	0.131532316078454	1	4	14	0	0
172	1	314.699999988079	3	1	0.842553019623828	0.157446980376171	1	5	14	0	1
172	1	244.099999964237	3	0	0.158498012125846	0.841501987874153	0	6	14	0	0
172	1	390.699999988079	3	0	0.164166521963153	0.835833478036846	0	7	14	0	0
172	1	378.699999988079	3	1	0.848226675250274	0.151773324749725	1	8	14	0	1
172	0	381.299999952316	3	0	0.199406556230923	0.800593443769076	0	9	14	0	1
172	0	339.599999964237	3	0	0.19833513851838	0.801664861481619	0	10	14	0	1
172	1	402.5	3	1	0.827945493379527	0.172054506620472	1	11	14	0	1
172	0	306.399999976158	3	1	0.855631466573946	0.144368533426053	1	12	14	0	0
172	0	404.699999988079	3	1	0.845986809442065	0.154013190557934	1	13	14	0	0
172	0	233.199999988079	3	1	0.851503033857216	0.148496966142783	1	14	14	0	0
172	1	300.899999976158	3	1	0.86230595531033	0.137694044689669	1	15	14	0	1
172	1	148.80000001192	3	0	0.173629291363093	0.826370708636906	0	16	14	0	0
172	1	381.600000023841	3	1	0.85843335948895	0.141566640511049	1	17	14	0	1
172	0	431.699999988079	3	0	0.136167451250066	0.863832548749933	0	18	14	0	1
172	0	248	3	1	0.818047434706355	0.181952565293644	1	19	14	0	0
172	1	384.599999964237	3	0	0.174864803773407	0.825135196226592	0	20	14	0	0
172	0	287.699999988079	3	0	0.158858384267919	0.84114161573208	0	21	14	0	1
172	0	305.699999988079	3	1	0.832385149565967	0.167614850434032	1	22	14	0	0
172	0	28.5999999642372	3	0	0.151976238983907	0.848023761016092	0	23	14	0	1
172	0	331.5	3	0	0.152142070798698	0.847857929201301	0	24	14	0	1
172	1	58.3000000119209	3	0	0.18666924319686	0.813330756803139	0	25	14	0	0
172	0	545.599999964237	2	1	0.568573665785107	0.431426334214892	1	1	15	0	0
172	1	737.600000023841	2	0	0.489788844555348	0.510211155444651	0	2	15	0	0
172	0	444.099999964237	2	1	0.529199307907343	0.470800692092656	1	3	15	0	0
172	1	565.80000001192	2	0	0.435644394761869	0.56435560523813	0	4	15	0	0
172	1	238.900000035762	2	0	0.459474554701923	0.540525445298076	0	5	15	0	0
172	0	317.700000047683	2	0	0.476700877889389	0.523299122110611	0	6	15	0	1
172	0	139.200000047683	2	1	0.541200068331041	0.458799931668958	1	7	15	0	0
172	0	363.399999976158	2	1	0.541438939058661	0.458561060941338	1	8	15	0	0
172	1	157.099999964237	2	0	0.482350995569752	0.517649004430247	0	9	15	0	0
172	1	166.399999976158	2	1	0.511482004211434	0.488517995788566	1	10	15	0	1
172	0	70.8000000119209	2	1	0.507467746319891	0.492532253680108	1	11	15	0	0
172	0	233.399999976158	2	0	0.48051278065884	0.519487219341159	0	12	15	0	1
172	1	10.699999988079	2	0	0.495620700409283	0.504379299590716	0	13	15	0	0
172	1	227.699999988079	2	0	0.424326879885179	0.57567312011482	0	14	15	0	0
172	1	213.400000035762	2	1	0.522693478641294	0.477306521358705	1	15	15	0	1
172	1	506.80000001192	2	1	0.520733518865626	0.479266481134373	1	16	15	0	1
172	1	479.599999964237	2	1	0.540867638886025	0.459132361113974	1	17	15	0	1
172	0	426	2	1	0.522531361897701	0.477468638102298	1	18	15	0	0
172	0	477.699999988079	2	0	0.442390838171342	0.557609161828657	0	19	15	0	1
172	1	523.5	2	1	0.534785112177607	0.465214887822392	1	20	15	0	1
172	1	479.299999952316	2	0	0.470294738117374	0.529705261882625	0	21	15	0	0
172	0	410.200000047683	2	1	0.574523717231235	0.425476282768764	1	22	15	0	0
172	1	544.80000001192	2	1	0.575054347464468	0.424945652535531	1	23	15	0	1
172	1	377.600000023841	2	0	0.483720663402151	0.516279336597848	0	24	15	0	0
172	0	410.5	2	0	0.461484057883036	0.538515942116963	0	25	15	0	1
172	0	403.30000001192	4	1	0.836165571022101	0.163834428977898	0	1	16	1	1
172	0	337.199999988079	4	1	0.835009594162331	0.164990405837668	0	2	16	1	1
172	0	532.699999988079	4	1	0.856540839348932	0.143459160651067	0	3	16	1	1
172	1	415.100000023841	4	0	0.187790461630218	0.812209538369781	1	4	16	1	1
172	0	343.099999964237	4	1	0.879537845348078	0.120462154651921	0	5	16	1	1
172	0	316.299999952316	4	1	0.811083374214216	0.188916625785783	0	6	16	1	1
172	1	370.200000047683	4	0	0.183473406692485	0.816526593307514	1	7	16	1	1
172	1	361.099999964237	4	0	0.170124352278544	0.829875647721455	1	8	16	1	1
172	0	282.80000001192	4	1	0.841289767598511	0.158710232401488	0	9	16	1	1
172	0	373.199999988079	4	1	0.819260006915512	0.180739993084487	0	10	16	1	1
172	0	504.30000001192	4	0	0.159098756485137	0.840901243514863	1	11	16	1	0
172	1	382.30000001192	4	0	0.12884485590998	0.871155144090019	1	12	16	1	1
172	1	362.699999988079	4	0	0.193609605240168	0.806390394759831	1	13	16	1	1
172	0	322.899999976158	4	1	0.819231040861216	0.180768959138784	0	14	16	1	1
172	1	339.5	4	0	0.128891981037272	0.871108018962727	1	15	16	1	1
172	0	283.30000001192	4	1	0.825016264392049	0.17498373560795	0	16	16	1	1
172	0	371.400000035762	4	1	0.819689726362836	0.180310273637163	0	17	16	1	1
172	1	378.399999976158	4	1	0.862440315811498	0.137559684188501	0	18	16	1	0
172	0	355.200000047683	4	0	0.136559350945152	0.863440649054847	1	19	16	1	0
172	1	346.600000023841	4	0	0.124182443555951	0.875817556444048	1	20	16	1	1
172	1	392.699999988079	4	0	0.129584361583213	0.870415638416786	1	21	16	1	1
172	1	413.399999976158	4	0	0.123946925379655	0.876053074620344	1	22	16	1	1
172	1	362.899999976158	4	0	0.125490732326995	0.874509267673004	1	23	16	1	1
172	1	313.900000035762	4	0	0.151702217767184	0.848297782232815	1	24	16	1	1
172	0	323.5	4	1	0.819717810599918	0.180282189400081	0	25	16	1	1
