ID,choice,rt,choice_cond,state,contrast_left,contrast_right,mu,correct,trials,blocks,contrast,congruence,con_diff_choice,ecoperf,mu_congruence,condition,actual_mu,est_error
139,1,"[748.5]",2,1,0.542468017037763,0.457531982962236,0.5,0,1,1,1,0,0.084936034075527,0,0.5,2,0.9,0.4
139,1,"[745.7999999523163]",2,1,0.524261868592444,0.475738131407555,0.28,0,2,1,1,0,0.0485237371848889,0,0.72,2,0.9,0.18
139,0,"[727.3999999761581]",2,0,0.489832314444945,0.510167685555054,0.5,0,3,1,1,0,0.020335371110109,0,0.5,2,0.9,0.4
139,1,"[673.3999999761581]",2,0,0.489475586959831,0.510524413040168,0.26,1,4,1,1,0,0.021048826080337,1,0.74,2,0.9,0.16
139,1,"[776.5999999642372]",2,1,0.502248859648518,0.497751140351481,0.34,0,5,1,1,0,0.00449771929703696,0,0.66,2,0.9,0.24
139,1,"[672]",2,1,0.505100022896887,0.494899977103112,0.25,0,6,1,1,0,0.010200045793775,0,0.75,2,0.9,0.15
139,0,"[722.1999999880791]",2,1,0.566411991547703,0.433588008452296,0.22,1,7,1,1,0,0.132823983095407,1,0.78,2,0.9,0.12
139,0,"[555.0999999642372]",2,1,0.584667128310454,0.415332871689546,0.11,1,8,1,1,0,0.169334256620908,1,0.89,2,0.9,0.01
139,0,"[779.8000000119209]",2,0,0.496972507727957,0.503027492272042,0.16,0,9,1,1,0,0.00605498454408504,0,0.84,2,0.9,0.0600000000000001
139,1,"[562.5999999642372]",2,0,0.410670521660641,0.589329478339358,0.17,1,10,1,1,0,0.178658956678717,1,0.83,2,0.9,0.0700000000000001
139,0,"[585.4000000357628]",2,1,0.529113522552077,0.470886477447922,0.16,1,11,1,1,0,0.058227045104155,1,0.84,2,0.9,0.0600000000000001
139,1,"[684.8999999761581]",2,0,0.42871437067757,0.571285629322429,0.09,1,12,1,1,0,0.142571258644859,1,0.91,2,0.9,0.01
139,0,"[512.3000000119209]",2,1,0.546356921906692,0.453643078093307,0.13,1,13,1,1,0,0.092713843813385,1,0.87,2,0.9,0.03
139,0,"[844.1999999880791]",2,0,0.498222229087823,0.501777770912176,0.12,0,14,1,1,0,0.00355554182435303,0,0.88,2,0.9,0.02
139,1,"[552]",2,0,0.41504368387938,0.584956316120619,0.13,1,15,1,1,0,0.169912632241239,1,0.87,2,0.9,0.03
139,1,"[635.8000000119209]",2,0,0.466944938458717,0.533055061541282,0.14,1,16,1,1,0,0.066110123082565,1,0.86,2,0.9,0.04
139,1,"[568.5999999642372]",2,0,0.467422343859585,0.532577656140414,0.13,1,17,1,1,0,0.065155312280829,1,0.87,2,0.9,0.03
139,0,"[692.5999999642372]",2,1,0.587422059113311,0.412577940886688,0.1,1,18,1,1,0,0.174844118226623,1,0.9,2,0.9,0
139,0,"[631.6999999880791]",2,1,0.595600253712052,0.404399746287947,0.1,1,19,1,1,0,0.191200507424105,1,0.9,2,0.9,0
139,1,"[630.7000000476837]",2,0,0.44004907971084,0.559950920289159,0.07,1,20,1,1,0,0.119901840578319,1,0.93,2,0.9,0.03
139,1,"[678.1999999880791]",2,0,0.464171877060632,0.535828122939367,0.07,1,21,1,1,0,0.071656245878735,1,0.93,2,0.9,0.03
139,0,"[590.8999999761581]",2,1,0.550337770679473,0.449662229320526,0.08,1,22,1,1,0,0.100675541358947,1,0.92,2,0.9,0.02
139,0,"[678.6000000238419]",2,0,0.49918296157601,0.500817038423989,0.09,0,23,1,1,0,0.00163407684797895,0,0.91,2,0.9,0.01
139,0,"[745]",2,1,0.538693167186305,0.461306832813694,0.09,1,24,1,1,0,0.077386334372611,1,0.91,2,0.9,0.01
139,0,"[631.1000000238419]",2,1,0.547888957173143,0.452111042826856,0.08,1,25,1,1,0,0.095777914346287,1,0.92,2,0.9,0.02
139,1,"[759.5999999642372]",2,1,0.572796084241355,0.427203915758645,0.5,0,1,2,1,1,0.14559216848271,0,0.5,2,0.9,0.4
139,0,"[613.5]",2,1,0.556738888345253,0.443261111654746,0.77,1,2,2,1,1,0.113477776690507,1,0.77,2,0.9,0.13
139,1,"[495.69999998807907]",2,0,0.402183165333751,0.597816834666248,0.8,1,3,2,1,1,0.195633669332497,1,0.8,2,0.9,0.1
139,0,"[697.2999999523163]",2,1,0.545157884401173,0.454842115598826,0.81,1,4,2,1,1,0.090315768802347,1,0.81,2,0.9,0.09
139,1,"[612.8000000119209]",2,0,0.451571595018623,0.548428404981377,0.88,1,5,2,1,1,0.096856809962754,1,0.88,2,0.9,0.02
139,1,"[581.3000000119209]",2,0,0.443742437306388,0.556257562693611,0.9,1,6,2,1,1,0.112515125387223,1,0.9,2,0.9,0
139,1,"[721.2000000476837]",2,0,0.400018595715417,0.599981404284582,0.91,1,7,2,1,1,0.199962808569165,1,0.91,2,0.9,0.01
139,0,"[537.5]",2,1,0.550589155333916,0.449410844666084,0.92,1,8,2,1,1,0.101178310667832,1,0.92,2,0.9,0.02
139,0,"[965.8999999761581]",2,1,0.582512477911419,0.41748752208858,0.93,1,9,2,1,1,0.165024955822839,1,0.93,2,0.9,0.03
139,0,"[766.3000000119209]",2,1,0.515759509563478,0.484240490436521,0.92,1,10,2,1,1,0.031519019126957,1,0.92,2,0.9,0.02
139,1,"[681.1999999880791]",2,0,0.432526238642343,0.567473761357656,0.91,1,11,2,1,1,0.134947522715313,1,0.91,2,0.9,0.01
139,1,"[938.1000000238419]",2,0,0.494640487868293,0.505359512131706,0.93,1,12,2,1,1,0.010719024263413,1,0.93,2,0.9,0.03
139,1,"[614.5]",2,0,0.457651665181989,0.54234833481801,0.96,1,13,2,1,1,0.084696669636021,1,0.96,2,0.9,0.0599999999999999
139,0,"[636.1999999880791]",2,1,0.561390411712987,0.438609588287012,0.96,1,14,2,1,1,0.122780823425975,1,0.96,2,0.9,0.0599999999999999
139,1,"[549.1000000238419]",2,0,0.460017735842023,0.539982264157976,0.94,1,15,2,1,1,0.079964528315953,1,0.94,2,0.9,0.0399999999999999
139,0,"[627.5]",2,1,0.588546715962015,0.411453284037984,0.95,1,16,2,1,1,0.177093431924031,1,0.95,2,0.9,0.0499999999999999
139,1,"[596.5]",2,0,0.476641759240564,0.523358240759435,0.96,1,17,2,1,1,0.046716481518871,1,0.96,2,0.9,0.0599999999999999
139,0,"[933.5999999642372]",2,0,0.498584423726119,0.50141557627388,0.95,0,18,2,1,1,0.00283115254776101,0,0.95,2,0.9,0.0499999999999999
139,1,"[488.80000001192093]",2,0,0.428606062448102,0.571393937551897,0.94,1,19,2,1,1,0.142787875103795,1,0.94,2,0.9,0.0399999999999999
139,0,"[483.5999999642372]",2,1,0.574693402798468,0.425306597201531,0.96,1,20,2,1,1,0.149386805596937,1,0.96,2,0.9,0.0599999999999999
139,0,"[758.7999999523163]",2,1,0.5183610396928,0.481638960307199,0.95,1,21,2,1,1,0.036722079385601,1,0.95,2,0.9,0.0499999999999999
139,0,"[451.2999999523163]",2,1,0.536942598905623,0.463057401094376,0.94,1,22,2,1,1,0.073885197811247,1,0.94,2,0.9,0.0399999999999999
139,0,"[619.2999999523163]",2,1,0.572518167282053,0.427481832717946,0.96,1,23,2,1,1,0.145036334564107,1,0.96,2,0.9,0.0599999999999999
139,0,"[614.8000000119209]",2,1,0.577488021946065,0.422511978053934,0.96,0,24,2,1,1,0.154976043892131,1,0.96,2,0.9,0.0599999999999999
139,1,"[616.5999999642372]",2,0,0.420787376185104,0.579212623814896,0.94,0,25,2,1,1,0.158425247629792,1,0.94,2,0.9,0.0399999999999999
139,1,"[670]",3,0,0.131820601929138,0.868179398070861,0.5,0,1,3,1,0,0.736358796141723,1,0.5,3,0.7,0.2
139,0,"[563.6000000238419]",3,0,0.0685090053264311,0.931490994673568,0.5,0,2,3,1,0,0.862981989347137,0,0.5,3,0.7,0.2
139,0,"[576]",3,1,0.906826465550381,0.0931735344496182,0.5,1,3,3,1,0,0.813652931100763,1,0.5,3,0.7,0.2
139,1,"[686.1999999880791]",3,0,0.0817020527647144,0.918297947235285,0.5,0,4,3,1,0,0.836595894470571,1,0.5,3,0.7,0.2
139,0,"[433]",3,1,0.921792596187167,0.0782074038128329,0.5,1,5,3,1,0,0.843585192374334,1,0.5,3,0.7,0.2
139,0,"[588.8000000119209]",3,1,0.917793503935703,0.0822064960642969,0.5,0,6,3,1,0,0.835587007871406,1,0.5,3,0.7,0.2
139,1,"[540.3000000119209]",3,1,0.87639133156245,0.123608668437549,0.5,0,7,3,1,0,0.752782663124901,0,0.5,3,0.7,0.2
139,0,"[463]",3,1,0.886739500614767,0.113260499385232,0.5,0,8,3,1,0,0.773479001229535,1,0.5,3,0.7,0.2
139,0,"[379.0999999642372]",3,0,0.090598171689669,0.909401828310331,0.5,0,9,3,1,0,0.818803656620662,0,0.5,3,0.7,0.2
139,1,"[343.30000001192093]",3,0,0.0886772674916583,0.911322732508341,0.5,1,10,3,1,0,0.822645465016683,1,0.5,3,0.7,0.2
139,1,"[372.9000000357628]",3,0,0.121743818651404,0.878256181348595,0.5,0,11,3,1,0,0.756512362697191,1,0.5,3,0.7,0.2
139,0,"[665.3000000119209]",3,0,0.149826695464584,0.850173304535415,0.5,0,12,3,1,0,0.700346609070831,0,0.5,3,0.7,0.2
139,1,"[587.4000000357628]",3,1,0.937381417657529,0.0626185823424704,0.5,0,13,3,1,0,0.874762835315059,0,0.5,3,0.7,0.2
139,0,"[657.1000000238419]",3,1,0.93211516076895,0.0678848392310494,0.5,1,14,3,1,0,0.864230321537901,1,0.5,3,0.7,0.2
139,1,"[833.6999999880791]",3,0,0.0708899286107895,0.92911007138921,0.5,0,15,3,1,0,0.858220142778421,1,0.5,3,0.7,0.2
139,0,"[611.1000000238419]",3,1,0.910099357300774,0.0899006426992253,0.5,1,16,3,1,0,0.820198714601549,1,0.5,3,0.7,0.2
139,1,"[450.19999998807907]",3,0,0.11475819393079,0.885241806069209,0.44,1,17,3,1,0,0.770483612138419,1,0.56,3,0.7,0.14
139,1,"[438.5]",3,0,0.116732401716758,0.883267598283241,0.4,1,18,3,1,0,0.766535196566483,1,0.6,3,0.7,0.1
139,0,"[477.80000001192093]",3,1,0.917697318008194,0.0823026819918056,0.5,0,19,3,1,0,0.835394636016388,1,0.5,3,0.7,0.2
139,0,"[779.8000000119209]",3,1,0.949874806041465,0.0501251939585341,0.41,1,20,3,1,0,0.899749612082931,1,0.59,3,0.7,0.11
139,0,"[480.10000002384186]",3,1,0.859671965713159,0.14032803428684,0.42,0,21,3,1,0,0.719343931426319,1,0.58,3,0.7,0.12
139,1,"[385.60000002384186]",3,0,0.0868972030053424,0.913102796994657,0.43,1,22,3,1,0,0.826205593989315,1,0.57,3,0.7,0.13
139,1,"[514.2999999523163]",3,0,0.0599831506247483,0.940016849375251,0.41,1,23,3,1,0,0.880033698750503,1,0.59,3,0.7,0.11
139,1,"[350.19999998807907]",3,0,0.1059695218083,0.894030478191699,0.39,1,24,3,1,0,0.788060956383399,1,0.61,3,0.7,0.09
139,0,"[394.30000001192093]",3,1,0.888020055262531,0.111979944737468,0.4,0,25,3,1,0,0.776040110525063,1,0.6,3,0.7,0.1
139,0,"[603]",1,1,0.587527127036944,0.412472872963055,0.5,1,1,4,1,0,0.175054254073889,1,0.5,1,0.7,0.2
139,1,"[519.1999999880791]",1,0,0.432606287413801,0.567393712586198,0.5,0,2,4,1,0,0.134787425172397,1,0.5,1,0.7,0.2
139,1,"[568.4000000357628]",1,0,0.453464832702584,0.546535167297415,0.46,1,3,4,1,0,0.0930703345948311,1,0.54,1,0.7,0.16
139,0,"[980.0999999642372]",1,1,0.573955838706332,0.426044161293667,0.48,1,4,4,1,0,0.147911677412665,1,0.52,1,0.7,0.18
139,0,"[716]",1,1,0.566571004261306,0.433428995738693,0.43,1,5,4,1,0,0.133142008522613,1,0.57,1,0.7,0.13
139,1,"[471.60000002384186]",1,0,0.44299515809705,0.557004841902949,0.5,0,6,4,1,0,0.114009683805899,1,0.5,1,0.7,0.2
139,1,"[736.5]",1,1,0.503747055583061,0.496252944416939,0.5,1,7,4,1,0,0.00749411116612198,0,0.5,1,0.7,0.2
139,0,"[618.1000000238419]",1,1,0.509249823548293,0.490750176451706,0.5,1,8,4,1,0,0.018499647096587,1,0.5,1,0.7,0.2
139,0,"[726.9000000357628]",1,1,0.523949302893964,0.476050697106035,0.5,1,9,4,1,0,0.047898605787929,1,0.5,1,0.7,0.2
139,0,"[714.5]",1,1,0.549113146557695,0.450886853442304,0.5,1,10,4,1,0,0.0982262931153911,1,0.5,1,0.7,0.2
139,1,"[636.2999999523163]",1,0,0.473332607527619,0.52666739247238,0.5,1,11,4,1,0,0.053334784944761,1,0.5,1,0.7,0.2
139,1,"[467.69999998807907]",1,0,0.413365362780854,0.586634637219146,0.46,1,12,4,1,0,0.173269274438292,1,0.54,1,0.7,0.16
139,1,"[792.3999999761581]",1,0,0.444218801369272,0.555781198630727,0.5,0,13,4,1,0,0.111562397261455,1,0.5,1,0.7,0.2
139,1,"[587.6000000238419]",1,0,0.453566489841131,0.546433510158868,0.47,1,14,4,1,0,0.092867020317737,1,0.53,1,0.7,0.17
139,1,"[860]",1,0,0.476493230264265,0.523506769735735,0.5,0,15,4,1,0,0.04701353947147,1,0.5,1,0.7,0.2
139,1,"[513.5999999642372]",1,0,0.495637962135994,0.504362037864005,0.5,1,16,4,1,0,0.00872407572801104,1,0.5,1,0.7,0.2
139,0,"[520.3999999761581]",1,1,0.561913533949778,0.438086466050221,0.5,1,17,4,1,0,0.123827067899557,1,0.5,1,0.7,0.2
139,0,"[458.60000002384186]",1,1,0.519062368310994,0.480937631689005,0.5,0,18,4,1,0,0.038124736621989,1,0.5,1,0.7,0.2
139,0,"[639]",1,1,0.592994681030489,0.40700531896951,0.5,1,19,4,1,0,0.185989362060979,1,0.5,1,0.7,0.2
139,0,"[490.0999999642372]",1,1,0.540806528491305,0.459193471508694,0.5,0,20,4,1,0,0.081613056982611,1,0.5,1,0.7,0.2
139,1,"[596.0999999642372]",1,1,0.515903552566447,0.484096447433552,0.5,0,21,4,1,0,0.031807105132895,0,0.5,1,0.7,0.2
139,1,"[616.8000000119209]",1,0,0.417219608129619,0.58278039187038,0.5,1,22,4,1,0,0.165560783740761,1,0.5,1,0.7,0.2
139,1,"[557.6999999880791]",1,0,0.407088876819445,0.592911123180555,0.5,1,23,4,1,0,0.18582224636111,1,0.5,1,0.7,0.2
139,1,"[489.4000000357628]",1,0,0.422058117682323,0.577941882317677,0.5,1,24,4,1,0,0.155883764635354,1,0.5,1,0.7,0.2
139,0,"[506.60000002384186]",1,1,0.550748428162367,0.449251571837633,0.5,0,25,4,1,0,0.101496856324734,1,0.5,1,0.7,0.2
139,0,"[856.1999999880791]",2,0,0.498520809234876,0.501479190765123,0.5,1,1,5,0,1,0.00295838153024702,1,0.5,2,0.9,0.4
139,1,"[991.0999999642372]",2,0,0.451139876299352,0.548860123700647,0.5,0,2,5,0,1,0.097720247401295,0,0.5,2,0.9,0.4
139,0,"[816.5]",2,1,0.515950218869058,0.484049781130941,0.5,0,3,5,0,1,0.031900437738117,0,0.5,2,0.9,0.4
139,0,"[814.6999999880791]",2,0,0.461253037626871,0.538746962373128,0.55,1,4,5,0,1,0.077493924746257,1,0.55,2,0.9,0.35
139,0,"[706.6999999880791]",2,0,0.45579768947615,0.544202310523849,0.55,1,5,5,0,1,0.088404621047699,1,0.55,2,0.9,0.35
139,1,"[664.3000000119209]",2,1,0.569822351589081,0.430177648410919,0.57,1,6,5,0,1,0.139644703178162,1,0.57,2,0.9,0.33
139,0,"[522.8999999761581]",2,0,0.410440482516978,0.589559517483021,0.57,1,7,5,0,1,0.179119034966043,1,0.57,2,0.9,0.33
139,0,"[679.8999999761581]",2,0,0.48476280500089,0.515237194999109,0.67,1,8,5,0,1,0.0304743899982191,1,0.67,2,0.9,0.23
139,1,"[587.6999999880791]",2,1,0.544561132059531,0.455438867940468,0.69,1,9,5,0,1,0.089122264119063,1,0.69,2,0.9,0.21
139,0,"[661.4000000357628]",2,0,0.454672290436416,0.545327709563583,0.69,1,10,5,0,1,0.090655419127167,1,0.69,2,0.9,0.21
139,1,"[455.89999997615814]",2,1,0.593287886269678,0.406712113730321,0.73,1,11,5,0,1,0.186575772539357,1,0.73,2,0.9,0.17
139,1,"[631.1000000238419]",2,1,0.532641413372946,0.467358586627053,0.78,1,12,5,0,1,0.065282826745893,1,0.78,2,0.9,0.12
139,0,"[508.30000001192093]",2,0,0.443693361548589,0.55630663845141,0.81,1,13,5,0,1,0.112613276902821,1,0.81,2,0.9,0.09
139,1,"[894.8000000119209]",2,1,0.501869538082274,0.498130461917725,0.88,1,14,5,0,1,0.00373907616454899,1,0.88,2,0.9,0.02
139,0,"[428.5999999642372]",2,0,0.421145646143474,0.578854353856525,0.92,1,15,5,0,1,0.157708707713051,1,0.92,2,0.9,0.02
139,0,"[833.5999999642372]",2,1,0.512479438497693,0.487520561502306,0.89,0,16,5,0,1,0.024958876995387,0,0.89,2,0.9,0.01
139,0,"[615.9000000357628]",2,0,0.419123507716784,0.580876492283215,0.91,1,17,5,0,1,0.161752984566431,1,0.91,2,0.9,0.01
139,1,"[598.8999999761581]",2,1,0.53466494640895,0.465335053591049,0.9,1,18,5,0,1,0.069329892817901,1,0.9,2,0.9,0
139,1,"[870.8999999761581]",2,1,0.502411692515032,0.497588307484967,0.92,1,19,5,0,1,0.00482338503006502,1,0.92,2,0.9,0.02
139,1,"[534.3000000119209]",2,1,0.549821473709321,0.450178526290678,0.92,1,20,5,0,1,0.099642947418643,1,0.92,2,0.9,0.02
139,1,"[578.5]",2,1,0.553551661255215,0.446448338744784,0.92,1,21,5,0,1,0.107103322510431,1,0.92,2,0.9,0.02
139,1,"[538.6000000238419]",2,1,0.521683944944993,0.478316055055006,0.93,1,22,5,0,1,0.043367889889987,1,0.93,2,0.9,0.03
139,0,"[664]",2,0,0.431232257053529,0.56876774294647,0.93,1,23,5,0,1,0.137535485892941,1,0.93,2,0.9,0.03
139,0,"[650.2999999523163]",2,0,0.401094335072326,0.598905664927673,0.95,1,24,5,0,1,0.197811329855347,1,0.95,2,0.9,0.0499999999999999
139,0,"[484.19999998807907]",2,0,0.438841877479873,0.561158122520126,0.93,0,25,5,0,1,0.122316245040253,1,0.93,2,0.9,0.03
139,1,"[707.3000000119209]",3,1,0.896535660001831,0.103464339998168,0.5,0,1,6,1,1,0.793071320003663,0,0.5,3,0.7,0.2
139,1,"[836.0999999642372]",3,0,0.127781287714279,0.87221871228572,0.5,0,2,6,1,1,0.744437424571441,1,0.5,3,0.7,0.2
139,0,"[569.7000000476837]",3,0,0.0566582635607048,0.943341736439295,0.5,0,3,6,1,1,0.88668347287859,0,0.5,3,0.7,0.2
139,0,"[739.6999999880791]",3,1,0.913665872295912,0.0863341277040873,0.5,1,4,6,1,1,0.827331744591825,1,0.5,3,0.7,0.2
139,1,"[798.9000000357628]",3,0,0.0876303056085162,0.912369694391483,0.5,0,5,6,1,1,0.824739388782967,1,0.5,3,0.7,0.2
139,1,"[759.1999999880791]",3,0,0.0716508026125708,0.928349197387429,0.5,1,6,6,1,1,0.856698394774858,1,0.5,3,0.7,0.2
139,1,"[667.3999999761581]",3,0,0.0606226718071321,0.939377328192867,0.56,1,7,6,1,1,0.878754656385735,1,0.56,3,0.7,0.14
139,0,"[567.8999999761581]",3,1,0.899335853106474,0.100664146893525,0.5,0,8,6,1,1,0.798671706212949,1,0.5,3,0.7,0.2
139,1,"[603.1000000238419]",3,0,0.0729354306960588,0.927064569303941,0.5,0,9,6,1,1,0.854129138607882,1,0.5,3,0.7,0.2
139,0,"[897.1000000238419]",3,1,0.947608438667159,0.0523915613328404,0.5,1,10,6,1,1,0.895216877334319,1,0.5,3,0.7,0.2
139,0,"[907]",3,0,0.113644001917277,0.886355998082722,0.5,0,11,6,1,1,0.772711996165445,0,0.5,3,0.7,0.2
139,0,"[891]",3,1,0.857120255064984,0.142879744935015,0.5,0,12,6,1,1,0.714240510129969,1,0.5,3,0.7,0.2
139,0,"[568.8000000119209]",3,1,0.930848270570106,0.0691517294298935,0.5,1,13,6,1,1,0.861696541140212,1,0.5,3,0.7,0.2
139,0,"[487.69999998807907]",3,1,0.850577531648923,0.149422468351076,0.5,1,14,6,1,1,0.701155063297847,1,0.5,3,0.7,0.2
139,0,"[502.5999999642372]",3,1,0.902473429303494,0.097526570696506,0.5,1,15,6,1,1,0.804946858606988,1,0.5,3,0.7,0.2
139,0,"[418.4000000357628]",3,0,0.0551751797119049,0.944824820288095,0.5,1,16,6,1,1,0.88964964057619,0,0.5,3,0.7,0.2
139,0,"[535.2000000476837]",3,1,0.927876058789838,0.0721239412101619,0.38,1,17,6,1,1,0.855752117579676,1,0.38,3,0.7,0.32
139,0,"[508.30000001192093]",3,1,0.870895373780303,0.129104626219696,0.5,0,18,6,1,1,0.741790747560607,1,0.5,3,0.7,0.2
139,0,"[375.7999999523163]",3,0,0.103843492081705,0.896156507918294,0.5,0,19,6,1,1,0.792313015836589,0,0.5,3,0.7,0.2
139,0,"[662.2000000476837]",3,0,0.113069760447609,0.88693023955239,0.5,0,20,6,1,1,0.773860479104781,0,0.5,3,0.7,0.2
139,1,"[857.6000000238419]",3,0,0.135438247543051,0.864561752456948,0.55,1,21,6,1,1,0.729123504913897,1,0.55,3,0.7,0.15
139,0,"[347.19999998807907]",3,1,0.85818723958073,0.141812760419269,0.5,0,22,6,1,1,0.716374479161461,1,0.5,3,0.7,0.2
139,1,"[435]",3,0,0.0615052559982665,0.938494744001733,0.5,1,23,6,1,1,0.876989488003467,1,0.5,3,0.7,0.2
139,0,"[383.19999998807907]",3,1,0.867605592523528,0.132394407476471,0.55,1,24,6,1,1,0.735211185047057,1,0.55,3,0.7,0.15
139,0,"[606.1000000238419]",3,1,0.931571011826075,0.0684289881739249,0.55,0,25,6,1,1,0.86314202365215,1,0.55,3,0.7,0.15
139,0,"[804.0999999642372]",1,0,0.438020892206396,0.561979107793603,0.5,1,1,7,0,1,0.123958215587207,1,0.5,1,0.7,0.2
139,1,"[862.0999999642372]",1,1,0.510981189362077,0.489018810637922,0.5,0,2,7,0,1,0.021962378724155,1,0.5,1,0.7,0.2
139,1,"[693.3999999761581]",1,1,0.584451420860538,0.415548579139461,0.56,1,3,7,0,1,0.168902841721077,1,0.56,1,0.7,0.14
139,1,"[589.8000000119209]",1,1,0.588496507855251,0.411503492144748,0.58,1,4,7,0,1,0.176993015710503,1,0.58,1,0.7,0.12
139,1,"[600.1999999880791]",1,1,0.524304697159871,0.475695302840128,0.58,1,5,7,0,1,0.048609394319743,1,0.58,1,0.7,0.12
139,1,"[410.19999998807907]",1,1,0.585083532584661,0.414916467415338,0.58,0,6,7,0,1,0.170167065169323,1,0.58,1,0.7,0.12
139,0,"[534.3000000119209]",1,0,0.421254871110784,0.578745128889215,0.62,1,7,7,0,1,0.157490257778431,1,0.62,1,0.7,0.08
139,1,"[664]",1,1,0.550470047376749,0.449529952623251,0.65,1,8,7,0,1,0.100940094753498,1,0.65,1,0.7,0.0499999999999999
139,0,"[531.3000000119209]",1,0,0.471218717147012,0.528781282852987,0.62,0,9,7,0,1,0.057562565705975,1,0.62,1,0.7,0.08
139,0,"[777.5]",1,0,0.481666277649718,0.518333722350281,0.65,1,10,7,0,1,0.036667444700563,1,0.65,1,0.7,0.0499999999999999
139,1,"[475.19999998807907]",1,1,0.580816348345768,0.419183651654231,0.61,0,11,7,0,1,0.161632696691537,1,0.61,1,0.7,0.09
139,0,"[564.1999999880791]",1,0,0.406547976247433,0.593452023752566,0.5,0,12,7,0,1,0.186904047505133,1,0.5,1,0.7,0.2
139,1,"[542.3000000119209]",1,0,0.450565516185433,0.549434483814566,0.5,0,13,7,0,1,0.0988689676291331,0,0.5,1,0.7,0.2
139,1,"[565.1999999880791]",1,1,0.569987455589966,0.430012544410033,0.58,1,14,7,0,1,0.139974911179933,1,0.58,1,0.7,0.12
139,0,"[532.8000000119209]",1,0,0.442294375510838,0.557705624489161,0.64,1,15,7,0,1,0.115411248978323,1,0.64,1,0.7,0.0599999999999999
139,0,"[630.8999999761581]",1,0,0.422179173290311,0.577820826709688,0.63,1,16,7,0,1,0.155641653419377,1,0.63,1,0.7,0.07
139,0,"[535.0999999642372]",1,0,0.432921111619789,0.56707888838021,0.7,1,17,7,0,1,0.134157776760421,1,0.7,1,0.7,0
139,0,"[482.0999999642372]",1,0,0.450617777420224,0.549382222579775,0.63,0,18,7,0,1,0.098764445159551,1,0.63,1,0.7,0.07
139,0,"[425.5999999642372]",1,0,0.449277957340624,0.550722042659376,0.65,1,19,7,0,1,0.101444085318752,1,0.65,1,0.7,0.0499999999999999
139,1,"[391.69999998807907]",1,1,0.588598836836591,0.411401163163408,0.66,1,20,7,0,1,0.177197673673183,1,0.66,1,0.7,0.0399999999999999
139,0,"[395.10000002384186]",1,0,0.441903638453248,0.558096361546751,0.65,0,21,7,0,1,0.116192723093503,1,0.65,1,0.7,0.0499999999999999
139,1,"[808.7000000476837]",1,1,0.51047013492064,0.489529865079359,0.67,1,22,7,0,1,0.020940269841281,1,0.67,1,0.7,0.0299999999999999
139,1,"[695.9000000357628]",1,1,0.523458079133165,0.476541920866834,0.67,1,23,7,0,1,0.046916158266331,1,0.67,1,0.7,0.0299999999999999
139,1,"[518.3000000119209]",1,1,0.509963224720497,0.490036775279502,0.67,0,24,7,0,1,0.019926449440995,1,0.67,1,0.7,0.0299999999999999
139,1,"[450.60000002384186]",1,1,0.549282880129417,0.450717119870582,0.68,0,25,7,0,1,0.098565760258835,1,0.68,1,0.7,0.0199999999999999
139,1,"[352.30000001192093]",3,0,0.143174972350368,0.856825027649631,0.5,1,1,8,0,0,0.713650055299263,0,0.5,3,0.7,0.2
139,1,"[486.30000001192093]",3,0,0.108251274877897,0.891748725122102,0.5,0,2,8,0,0,0.783497450244205,0,0.5,3,0.7,0.2
139,1,"[427.5999999642372]",3,1,0.913109857129412,0.0868901428705873,0.5,1,3,8,0,0,0.826219714258825,1,0.5,3,0.7,0.2
139,0,"[384.2000000476837]",3,0,0.133535895072573,0.866464104927426,0.5,0,4,8,0,0,0.732928209854853,1,0.5,3,0.7,0.2
139,1,"[955.5]",3,1,0.88681968646554,0.113180313534459,0.5,0,5,8,0,0,0.773639372931081,1,0.5,3,0.7,0.2
139,1,"[556.8000000119209]",3,0,0.106721569349879,0.89327843065012,0.5,0,6,8,0,0,0.786556861300241,0,0.5,3,0.7,0.2
139,0,"[662.5]",3,1,0.886791689011534,0.113208310988465,0.43,0,7,8,0,0,0.773583378023069,0,0.57,3,0.7,0.13
139,1,"[782.1999999880791]",3,1,0.903265801410975,0.0967341985890243,0.5,1,8,8,0,0,0.806531602821951,1,0.5,3,0.7,0.2
139,1,"[439.0999999642372]",3,1,0.894457085790877,0.105542914209122,0.5,0,9,8,0,0,0.788914171581755,1,0.5,3,0.7,0.2
139,0,"[462.2999999523163]",3,1,0.887471886281636,0.112528113718363,0.5,0,10,8,0,0,0.774943772563273,0,0.5,3,0.7,0.2
139,1,"[457.5]",3,0,0.141308376547609,0.85869162345239,0.5,0,11,8,0,0,0.717383246904781,0,0.5,3,0.7,0.2
139,0,"[538]",3,0,0.110838570349228,0.889161429650771,0.5,1,12,8,0,0,0.778322859301543,1,0.5,3,0.7,0.2
139,1,"[514.8000000119209]",3,1,0.888808167788666,0.111191832211333,0.5,0,13,8,0,0,0.777616335577333,1,0.5,3,0.7,0.2
139,0,"[469.30000001192093]",3,0,0.066359386640998,0.933640613359002,0.4,1,14,8,0,0,0.867281226718004,1,0.6,3,0.7,0.1
139,0,"[468.39999997615814]",3,0,0.131474239852613,0.868525760147386,0.44,0,15,8,0,0,0.737051520294773,1,0.56,3,0.7,0.14
139,0,"[381.80000001192093]",3,0,0.148853481020226,0.851146518979773,0.39,1,16,8,0,0,0.702293037959547,1,0.61,3,0.7,0.09
139,1,"[378]",3,1,0.903778524891497,0.0962214751085024,0.4,1,17,8,0,0,0.807557049782995,1,0.6,3,0.7,0.1
139,0,"[359.30000001192093]",3,0,0.10089074331248,0.899109256687519,0.42,0,18,8,0,0,0.798218513375039,1,0.58,3,0.7,0.12
139,1,"[436.80000001192093]",3,1,0.912169189229595,0.0878308107704041,0.39,1,19,8,0,0,0.824338378459191,1,0.61,3,0.7,0.09
139,1,"[383.19999998807907]",3,1,0.872277237679986,0.127722762320013,0.38,1,20,8,0,0,0.744554475359973,1,0.62,3,0.7,0.08
139,0,"[313.69999998807907]",3,0,0.106710126579389,0.89328987342061,0.38,1,21,8,0,0,0.786579746841221,1,0.62,3,0.7,0.08
139,1,"[475.7999999523163]",3,1,0.909201243503119,0.0907987564968803,0.36,1,22,8,0,0,0.818402487006239,1,0.64,3,0.7,0.0599999999999999
139,0,"[368.39999997615814]",3,0,0.112741126481394,0.887258873518605,0.31,0,23,8,0,0,0.774517747037211,1,0.69,3,0.7,0.01
139,0,"[448.10000002384186]",3,0,0.0880278619955859,0.911972138004414,0.28,0,24,8,0,0,0.823944276008828,1,0.72,3,0.7,0.02
139,1,"[356.69999998807907]",3,1,0.919801971743071,0.0801980282569289,0.3,0,25,8,0,0,0.839603943486142,1,0.7,3,0.7,0
139,1,"[750.9000000357628]",1,1,0.553172920858122,0.446827079141877,0.5,0,1,9,1,1,0.106345841716245,0,0.5,1,0.7,0.2
139,1,"[646.8999999761581]",1,1,0.578006154812059,0.42199384518794,0.5,0,2,9,1,1,0.156012309624119,0,0.5,1,0.7,0.2
139,0,"[531.6999999880791]",1,1,0.546037307123765,0.453962692876235,0.5,0,3,9,1,1,0.09207461424753,1,0.5,1,0.7,0.2
139,1,"[788.8000000119209]",1,0,0.479589360665506,0.520410639334493,0.5,0,4,9,1,1,0.040821278668987,1,0.5,1,0.7,0.2
139,1,"[740.4000000357628]",1,0,0.457165243299667,0.542834756700333,0.5,1,5,9,1,1,0.085669513400666,1,0.5,1,0.7,0.2
139,0,"[663.3999999761581]",1,1,0.573696123308252,0.426303876691747,0.55,1,6,9,1,1,0.147392246616505,1,0.55,1,0.7,0.15
139,1,"[619.6000000238419]",1,0,0.496230946139135,0.503769053860864,0.5,0,7,9,1,1,0.00753810772172903,1,0.5,1,0.7,0.2
139,0,"[990.8000000119209]",1,0,0.49363212162899,0.506367878371009,0.5,0,8,9,1,1,0.012735756742019,0,0.5,1,0.7,0.2
139,0,"[674.6999999880791]",1,1,0.577066980145496,0.422933019854503,0.5,0,9,9,1,1,0.154133960290993,1,0.5,1,0.7,0.2
139,1,"[832.1000000238419]",1,1,0.501491178998814,0.498508821001185,0.5,0,10,9,1,1,0.00298235799762903,0,0.5,1,0.7,0.2
139,1,"[599.9000000357628]",1,0,0.428035825554652,0.571964174445347,0.5,1,11,9,1,1,0.143928348890695,1,0.5,1,0.7,0.2
139,0,"[712.6999999880791]",1,1,0.534643234160311,0.465356765839688,0.55,1,12,9,1,1,0.069286468320623,1,0.55,1,0.7,0.15
139,1,"[563.2000000476837]",1,0,0.451271839261569,0.54872816073843,0.53,0,13,9,1,1,0.097456321476861,1,0.53,1,0.7,0.17
139,1,"[636.1000000238419]",1,0,0.421152197466364,0.578847802533635,0.54,1,14,9,1,1,0.157695605067271,1,0.54,1,0.7,0.16
139,0,"[809.1999999880791]",1,1,0.56267610886516,0.437323891134839,0.53,1,15,9,1,1,0.125352217730321,1,0.53,1,0.7,0.17
139,1,"[636.9000000357628]",1,0,0.457178747850007,0.542821252149992,0.53,0,16,9,1,1,0.085642504299985,1,0.53,1,0.7,0.17
139,0,"[461.10000002384186]",1,1,0.570994896054058,0.429005103945941,0.55,1,17,9,1,1,0.141989792108117,1,0.55,1,0.7,0.15
139,0,"[600.6000000238419]",1,1,0.598124991214126,0.401875008785873,0.53,0,18,9,1,1,0.196249982428253,1,0.53,1,0.7,0.17
139,1,"[524.1000000238419]",1,0,0.478016120624037,0.521983879375962,0.53,1,19,9,1,1,0.043967758751925,1,0.53,1,0.7,0.17
139,1,"[546]",1,0,0.412984575224636,0.587015424775364,0.55,1,20,9,1,1,0.174030849550728,1,0.55,1,0.7,0.15
139,1,"[660.3000000119209]",1,0,0.45846473514943,0.541535264850569,0.54,1,21,9,1,1,0.083070529701139,1,0.54,1,0.7,0.16
139,0,"[498.2999999523163]",1,1,0.557486094894679,0.44251390510532,0.54,1,22,9,1,1,0.114972189789359,1,0.54,1,0.7,0.16
139,0,"[877.6999999880791]",1,1,0.507701564822886,0.492298435177113,0.54,0,23,9,1,1,0.015403129645773,1,0.54,1,0.7,0.16
139,1,"[617.7000000476837]",1,0,0.421336742770317,0.578663257229682,0.59,1,24,9,1,1,0.157326514459365,1,0.59,1,0.7,0.11
139,0,"[586.6999999880791]",1,1,0.556959530197604,0.443040469802395,0.63,1,25,9,1,1,0.113919060395209,1,0.63,1,0.7,0.07
139,0,"[738.6000000238419]",1,1,0.519781148602292,0.480218851397707,0.5,1,1,10,0,0,0.039562297204585,0,0.5,1,0.7,0.2
139,0,"[733.6999999880791]",1,1,0.50470246305384,0.495297536946159,0.5,0,2,10,0,0,0.00940492610768101,0,0.5,1,0.7,0.2
139,0,"[678.9000000357628]",1,1,0.557928677410783,0.442071322589216,0.5,1,3,10,0,0,0.115857354821567,0,0.5,1,0.7,0.2
139,0,"[673.6000000238419]",1,1,0.509406954064854,0.490593045935145,0.5,0,4,10,0,0,0.018813908129709,0,0.5,1,0.7,0.2
139,1,"[689.4000000357628]",1,0,0.442507468188914,0.557492531811085,0.5,0,5,10,0,0,0.114985063622171,0,0.5,1,0.7,0.2
139,1,"[826.6000000238419]",1,0,0.495554870383726,0.504445129616273,0.5,0,6,10,0,0,0.00889025923254699,0,0.5,1,0.7,0.2
139,0,"[637.3999999761581]",1,1,0.589221280634072,0.410778719365927,0.5,0,7,10,0,0,0.178442561268145,0,0.5,1,0.7,0.2
139,0,"[650]",1,0,0.474471994411424,0.525528005588575,0.5,0,8,10,0,0,0.051056011177151,1,0.5,1,0.7,0.2
139,1,"[473.0999999642372]",1,0,0.455133101229191,0.544866898770809,0.5,1,9,10,0,0,0.089733797541618,0,0.5,1,0.7,0.2
139,0,"[752.0999999642372]",1,1,0.549891573031554,0.450108426968445,0.5,1,10,10,0,0,0.099783146063109,0,0.5,1,0.7,0.2
139,1,"[635.5999999642372]",1,0,0.482988705064045,0.517011294935954,0.5,0,11,10,0,0,0.034022589871909,0,0.5,1,0.7,0.2
139,1,"[668.6999999880791]",1,1,0.5741733084509,0.425826691549099,0.5,1,12,10,0,0,0.148346616901801,1,0.5,1,0.7,0.2
139,1,"[619.3999999761581]",1,1,0.554104636752792,0.445895363247207,0.5,0,13,10,0,0,0.108209273505585,1,0.5,1,0.7,0.2
139,0,"[854.5]",1,1,0.502049489526115,0.497950510473884,0.5,0,14,10,0,0,0.00409897905223094,0,0.5,1,0.7,0.2
139,0,"[510]",1,0,0.426676457129396,0.573323542870603,0.5,1,15,10,0,0,0.146647085741207,1,0.5,1,0.7,0.2
139,0,"[693.1999999880791]",1,0,0.462048505231668,0.537951494768331,0.43,1,16,10,0,0,0.075902989536663,1,0.57,1,0.7,0.13
139,0,"[958.1000000238419]",1,0,0.484320986890499,0.5156790131095,0.44,1,17,10,0,0,0.031358026219001,1,0.56,1,0.7,0.14
139,0,"[651.5999999642372]",1,0,0.439997877896831,0.560002122103168,0.5,0,18,10,0,0,0.120004244206337,1,0.5,1,0.7,0.2
139,1,"[519.9000000357628]",1,1,0.534951244702169,0.46504875529783,0.45,1,19,10,0,0,0.069902489404339,1,0.55,1,0.7,0.15
139,1,"[462.2000000476837]",1,1,0.541943359300832,0.458056640699167,0.44,1,20,10,0,0,0.083886718601665,1,0.56,1,0.7,0.14
139,0,"[593.3999999761581]",1,0,0.425950366743458,0.574049633256541,0.4,1,21,10,0,0,0.148099266513083,1,0.6,1,0.7,0.1
139,0,"[873.0999999642372]",1,0,0.479362605610036,0.520637394389963,0.44,0,22,10,0,0,0.041274788779927,1,0.56,1,0.7,0.14
139,0,"[647.1000000238419]",1,0,0.431773291159234,0.568226708840765,0.41,1,23,10,0,0,0.136453417681531,1,0.59,1,0.7,0.11
139,0,"[536.1999999880791]",1,0,0.455483744515373,0.544516255484626,0.41,0,24,10,0,0,0.089032510969253,1,0.59,1,0.7,0.11
139,1,"[943.7999999523163]",1,1,0.517110706711091,0.482889293288908,0.36,0,25,10,0,0,0.034221413422183,1,0.64,1,0.7,0.0599999999999999
139,1,"[677]",3,1,0.90710668365818,0.0928933163418197,0.5,0,1,11,0,1,0.81421336731636,1,0.5,3,0.7,0.2
139,1,"[768.3000000119209]",3,0,0.0944141462322175,0.905585853767782,0.5,0,2,11,0,1,0.811171707535564,0,0.5,3,0.7,0.2
139,0,"[616.3999999761581]",3,0,0.0768639165573105,0.923136083442689,0.5,1,3,11,0,1,0.846272166885379,1,0.5,3,0.7,0.2
139,0,"[590.8999999761581]",3,0,0.0516724967046263,0.948327503295373,0.5,0,4,11,0,1,0.896655006590747,1,0.5,3,0.7,0.2
139,0,"[452.80000001192093]",3,0,0.0808476672386234,0.919152332761376,0.5,0,5,11,0,1,0.838304665522753,1,0.5,3,0.7,0.2
139,0,"[455.4000000357628]",3,1,0.87115033676359,0.128849663236409,0.5,0,6,11,0,1,0.742300673527181,0,0.5,3,0.7,0.2
139,1,"[598.6999999880791]",3,0,0.0863460045629063,0.913653995437093,0.5,0,7,11,0,1,0.827307990874187,0,0.5,3,0.7,0.2
139,0,"[412.0999999642372]",3,0,0.0855335329081382,0.914466467091861,0.5,1,8,11,0,1,0.828932934183723,1,0.5,3,0.7,0.2
139,1,"[565.6000000238419]",3,1,0.906169456626186,0.093830543373813,0.5,0,9,11,0,1,0.812338913252373,1,0.5,3,0.7,0.2
139,0,"[415.5]",3,0,0.10181653879597,0.898183461204029,0.5,1,10,11,0,1,0.796366922408059,1,0.5,3,0.7,0.2
139,0,"[556]",3,0,0.091496150258107,0.908503849741892,0.5,0,11,11,0,1,0.817007699483785,1,0.5,3,0.7,0.2
139,0,"[539.1000000238419]",3,0,0.0781695681860273,0.921830431813972,0.5,1,12,11,0,1,0.843660863627945,1,0.5,3,0.7,0.2
139,0,"[710]",3,1,0.921586198611013,0.0784138013889861,0.5,0,13,11,0,1,0.843172397222027,0,0.5,3,0.7,0.2
139,0,"[718.7999999523163]",3,1,0.942700565702364,0.0572994342976359,0.5,0,14,11,0,1,0.885401131404728,0,0.5,3,0.7,0.2
139,0,"[404.2999999523163]",3,1,0.855531469929646,0.144468530070353,0.5,1,15,11,0,1,0.711062939859293,0,0.5,3,0.7,0.2
139,0,"[501]",3,1,0.857789277310361,0.142210722689638,0.5,0,16,11,0,1,0.715578554620723,0,0.5,3,0.7,0.2
139,0,"[421.10000002384186]",3,1,0.924304981710395,0.0756950182896042,0.5,1,17,11,0,1,0.848609963420791,0,0.5,3,0.7,0.2
139,0,"[357.69999998807907]",3,1,0.885644880865708,0.114355119134291,0.5,0,18,11,0,1,0.771289761731417,0,0.5,3,0.7,0.2
139,0,"[467.5]",3,1,0.922789406316374,0.0772105936836254,0.5,0,19,11,0,1,0.845578812632749,0,0.5,3,0.7,0.2
139,0,"[354.10000002384186]",3,1,0.90104732977805,0.0989526702219498,0.5,0,20,11,0,1,0.8020946595561,0,0.5,3,0.7,0.2
139,0,"[583.6000000238419]",3,0,0.149580118343497,0.850419881656503,0.5,1,21,11,0,1,0.700839763313006,1,0.5,3,0.7,0.2
139,0,"[440.19999998807907]",3,0,0.116817032336355,0.883182967663644,0.5,0,22,11,0,1,0.766365935327289,1,0.5,3,0.7,0.2
139,0,"[420.10000002384186]",3,0,0.11860893118839,0.881391068811609,0.55,0,23,11,0,1,0.762782137623219,1,0.55,3,0.7,0.15
139,1,"[932.3999999761581]",3,1,0.862391825879064,0.137608174120935,0.5,0,24,11,0,1,0.724783651758129,1,0.5,3,0.7,0.2
139,0,"[566.2999999523163]",3,0,0.0589989389540758,0.941001061045924,0.5,0,25,11,0,1,0.882002122091848,1,0.5,3,0.7,0.2
139,1,"[709.5999999642372]",2,1,0.584262821516177,0.415737178483822,0.5,1,1,12,0,0,0.168525643032355,1,0.5,2,0.9,0.4
139,0,"[587.5]",2,0,0.457285119292971,0.542714880707028,0.5,1,2,12,0,0,0.085429761414057,1,0.5,2,0.9,0.4
139,1,"[751.8999999761581]",2,1,0.505266169105565,0.494733830894434,0.42,1,3,12,0,0,0.010532338211131,1,0.58,2,0.9,0.32
139,0,"[513.1999999880791]",2,0,0.498296980769188,0.501703019230811,0.42,1,4,12,0,0,0.00340603846162296,1,0.58,2,0.9,0.32
139,0,"[498.30000001192093]",2,0,0.462557880160831,0.537442119839169,0.33,1,5,12,0,0,0.074884239678338,1,0.67,2,0.9,0.23
139,0,"[543.1000000238419]",2,0,0.464809894488988,0.535190105511011,0.23,1,6,12,0,0,0.070380211022023,1,0.77,2,0.9,0.13
139,0,"[754]",2,0,0.408662939997426,0.591337060002573,0.23,1,7,12,0,0,0.182674120005147,1,0.77,2,0.9,0.13
139,1,"[423.0999999642372]",2,1,0.532926498705361,0.467073501294638,0.18,1,8,12,0,0,0.065852997410723,1,0.82,2,0.9,0.0800000000000001
139,1,"[436.39999997615814]",2,1,0.560124073715477,0.439875926284522,0.16,1,9,12,0,0,0.120248147430955,1,0.84,2,0.9,0.0600000000000001
139,0,"[626.5]",2,0,0.459630743648381,0.540369256351618,0.15,1,10,12,0,0,0.080738512703237,1,0.85,2,0.9,0.05
139,1,"[910.6999999880791]",2,1,0.548102014996642,0.451897985003357,0.13,1,11,12,0,0,0.096204029993285,1,0.87,2,0.9,0.03
139,1,"[582.7999999523163]",2,1,0.558080082720804,0.441919917279195,0.11,1,12,12,0,0,0.116160165441609,1,0.89,2,0.9,0.01
139,0,"[631.1999999880791]",2,0,0.460778575582083,0.539221424417916,0.11,1,13,12,0,0,0.078442848835833,1,0.89,2,0.9,0.01
139,1,"[575.8999999761581]",2,1,0.597496532960178,0.402503467039821,0.09,1,14,12,0,0,0.194993065920357,1,0.91,2,0.9,0.01
139,1,"[449.30000001192093]",2,1,0.554443930526194,0.445556069473805,0.07,1,15,12,0,0,0.108887861052389,1,0.93,2,0.9,0.03
139,0,"[452]",2,0,0.42311793909642,0.57688206090358,0.05,1,16,12,0,0,0.15376412180716,1,0.95,2,0.9,0.0499999999999999
139,0,"[451.80000001192093]",2,0,0.423838228605753,0.576161771394246,0.05,1,17,12,0,0,0.152323542788493,1,0.95,2,0.9,0.0499999999999999
139,0,"[765.2999999523163]",2,0,0.419341018408041,0.580658981591958,0.05,1,18,12,0,0,0.161317963183917,1,0.95,2,0.9,0.0499999999999999
139,1,"[672.8999999761581]",2,1,0.597030221897958,0.402969778102041,0.04,1,19,12,0,0,0.194060443795917,1,0.96,2,0.9,0.0599999999999999
139,1,"[542.0999999642372]",2,1,0.561016861620473,0.438983138379526,0.05,1,20,12,0,0,0.122033723240947,1,0.95,2,0.9,0.0499999999999999
139,1,"[566.8000000119209]",2,1,0.576857979621885,0.423142020378114,0.03,1,21,12,0,0,0.153715959243771,1,0.97,2,0.9,0.07
139,1,"[842.8999999761581]",2,1,0.501636414079617,0.498363585920382,0.03,1,22,12,0,0,0.00327282815923502,1,0.97,2,0.9,0.07
139,0,"[613.1999999880791]",2,0,0.468069916158124,0.531930083841876,0.04,1,23,12,0,0,0.063860167683752,1,0.96,2,0.9,0.0599999999999999
139,0,"[660.8999999761581]",2,0,0.421858973686009,0.57814102631399,0.03,1,24,12,0,0,0.156282052627981,1,0.97,2,0.9,0.07
139,0,"[479.19999998807907]",2,0,0.44995033621818,0.550049663781819,0.03,1,25,12,0,0,0.100099327563639,1,0.97,2,0.9,0.07
143,1,"[583.9000000953674]",2,0,0.416919990419081,0.583080009580918,0,0,1,1,0,0,0.166160019161837,0,1,2,0.9,0.1
143,0,"[619.7000000476837]",2,1,0.566023455521082,0.433976544478917,0,0,2,1,0,0,0.132046911042165,0,1,2,0.9,0.1
143,1,"[542.4000000953674]",2,1,0.564436771284186,0.435563228715813,0,1,3,1,0,0,0.128873542568373,1,1,2,0.9,0.1
143,1,"[623.2999999523163]",2,1,0.575694856616438,0.424305143383561,0,1,4,1,0,0,0.151389713232877,1,1,2,0.9,0.1
143,1,"[607.9000000953674]",2,1,0.577900512626907,0.422099487373092,0,1,5,1,0,0,0.155801025253815,1,1,2,0.9,0.1
143,0,"[602]",2,0,0.458947784465913,0.541052215534086,0.24,1,6,1,0,0,0.082104431068173,1,0.76,2,0.9,0.14
143,0,"[571.5999999046326]",2,0,0.443348029231922,0.556651970768077,0,1,7,1,0,0,0.113303941536155,1,1,2,0.9,0.1
143,1,"[556.2999999523163]",2,1,0.586394037550027,0.413605962449972,0,1,8,1,0,0,0.172788075100055,1,1,2,0.9,0.1
143,1,"[500.7000000476837]",2,1,0.584375195755975,0.415624804244024,0,1,9,1,0,0,0.168750391511951,1,1,2,0.9,0.1
143,0,"[661.8999998569489]",2,0,0.475514385312643,0.524485614687356,0,1,10,1,0,0,0.048971229374713,1,1,2,0.9,0.1
143,0,"[518.4000000953674]",2,0,0.452556539441812,0.547443460558188,0,1,11,1,0,0,0.094886921116376,1,1,2,0.9,0.1
143,0,"[530.2000000476837]",2,0,0.438367219488086,0.561632780511913,0,1,12,1,0,0,0.123265561023827,1,1,2,0.9,0.1
143,1,"[629.5999999046326]",2,1,0.547996611819756,0.452003388180243,0,1,13,1,0,0,0.095993223639513,1,1,2,0.9,0.1
143,1,"[434.39999985694885]",2,1,0.583168802226797,0.416831197773202,0,1,14,1,0,0,0.166337604453595,1,1,2,0.9,0.1
143,0,"[536.5]",2,0,0.490985492190993,0.509014507809006,0,1,15,1,0,0,0.018029015618013,1,1,2,0.9,0.1
143,1,"[562.7000000476837]",2,1,0.530539804052989,0.46946019594701,0,1,16,1,0,0,0.061079608105979,1,1,2,0.9,0.1
143,0,"[533.9000000953674]",2,0,0.415291601508035,0.584708398491964,0,1,17,1,0,0,0.169416796983929,1,1,2,0.9,0.1
143,1,"[533.4000000953674]",2,1,0.536073317626533,0.463926682373466,0,1,18,1,0,0,0.072146635253067,1,1,2,0.9,0.1
143,1,"[496.60000014305115]",2,1,0.570865318835232,0.429134681164767,0,1,19,1,0,0,0.141730637670465,1,1,2,0.9,0.1
143,0,"[710.6999998092651]",2,0,0.458912986511503,0.541087013488496,0,1,20,1,0,0,0.082174026976993,1,1,2,0.9,0.1
143,1,"[813.7999999523163]",2,1,0.504710116223895,0.495289883776104,0,1,21,1,0,0,0.00942023244779094,1,1,2,0.9,0.1
143,0,"[859.5]",2,0,0.441636215908713,0.558363784091287,0,1,22,1,0,0,0.116727568182574,1,1,2,0.9,0.1
143,0,"[551]",2,0,0.408906333908917,0.591093666091082,0,1,23,1,0,0,0.182187332182165,1,1,2,0.9,0.1
143,0,"[533.9000000953674]",2,0,0.425211444348817,0.574788555651182,0,1,24,1,0,0,0.149577111302365,1,1,2,0.9,0.1
143,1,"[819]",2,1,0.529595316831175,0.470404683168824,0,1,25,1,0,0,0.059190633662351,1,1,2,0.9,0.1
143,0,"[635.5]",1,0,0.406215917982932,0.593784082017067,0,1,1,2,1,1,0.187568164034135,0,0,1,0.7,0.7
143,0,"[580.2000000476837]",1,0,0.432239172528674,0.567760827471325,1,0,2,2,1,1,0.135521654942651,0,1,1,0.7,0.3
143,1,"[437]",1,0,0.425561655874812,0.574438344125187,NaN,1,3,2,1,1,0.148876688250375,1,NaN,1,0.7,NaN
143,0,"[573.7000000476837]",1,1,0.595757077953572,0.404242922046427,1,1,4,2,1,1,0.191514155907145,1,1,1,0.7,0.3
143,0,"[579.8999998569489]",1,1,0.543141279841443,0.456858720158557,0,0,5,2,1,1,0.086282559682886,1,0,1,0.7,0.7
143,0,"[523.7999999523163]",1,0,0.402114016340727,0.597885983659272,1,0,6,2,1,1,0.195771967318545,0,1,1,0.7,0.3
143,1,"[836.8000001907349]",1,0,0.498003067060539,0.50199693293946,0,1,7,2,1,1,0.00399386587892103,1,0,1,0.7,0.7
143,1,"[684.3999998569489]",1,0,0.449163001883644,0.550836998116355,0,0,8,2,1,1,0.101673996232711,1,0,1,0.7,0.7
143,1,"[763.9000000953674]",1,1,0.591700475568481,0.408299524431518,1,0,9,2,1,1,0.183400951136963,0,1,1,0.7,0.3
143,0,"[512.9000000953674]",1,1,0.533794698193446,0.466205301806553,1,1,10,2,1,1,0.067589396386893,1,1,1,0.7,0.3
143,0,"[669.8000001907349]",1,1,0.528830933084394,0.471169066915605,1,0,11,2,1,1,0.057661866168789,1,1,1,0.7,0.3
143,1,"[762.7999999523163]",1,0,0.488744354079678,0.511255645920321,0,1,12,2,1,1,0.022511291840643,1,0,1,0.7,0.7
143,0,"[618.2000000476837]",1,0,0.482592087683955,0.517407912316044,0,0,13,2,1,1,0.034815824632089,0,0,1,0.7,0.7
143,1,"[882.6000001430511]",1,1,0.534548156344966,0.465451843655033,0,0,14,2,1,1,0.069096312689933,0,0,1,0.7,0.7
143,0,"[542.7000000476837]",1,1,0.556146466947863,0.443853533052136,1,1,15,2,1,1,0.112292933895727,1,1,1,0.7,0.3
143,1,"[445.39999985694885]",1,0,0.455110077320165,0.544889922679834,0,1,16,2,1,1,0.089779845359669,1,0,1,0.7,0.7
143,1,"[510.2000000476837]",1,0,0.460301454037834,0.539698545962165,1,1,17,2,1,1,0.079397091924331,1,1,1,0.7,0.3
143,0,"[616.9000000953674]",1,1,0.579089830685482,0.420910169314517,1,1,18,2,1,1,0.158179661370965,1,1,1,0.7,0.3
143,1,"[733.0999999046326]",1,1,0.504420177427437,0.495579822572562,NaN,0,19,2,1,1,0.00884035485487505,0,NaN,1,0.7,NaN
143,0,"[669.7000000476837]",1,1,0.544636937390466,0.455363062609533,1,1,20,2,1,1,0.089273874780933,1,1,1,0.7,0.3
143,0,"[961.0999999046326]",1,1,0.532673134407578,0.467326865592421,0,0,21,2,1,1,0.065346268815157,1,0,1,0.7,0.7
143,1,"[520.9000000953674]",1,0,0.442584041360914,0.557415958639085,0,0,22,2,1,1,0.114831917278171,1,0,1,0.7,0.7
143,1,"[586.6999998092651]",1,1,0.532082050131816,0.467917949868183,0,0,23,2,1,1,0.064164100263633,0,0,1,0.7,0.7
143,0,"[597.7000000476837]",1,1,0.585542176937154,0.414457823062845,0,0,24,2,1,1,0.171084353874309,1,0,1,0.7,0.7
143,1,"[587.9000000953674]",1,0,0.487554305579682,0.512445694420318,0,0,25,2,1,1,0.024891388840636,1,0,1,0.7,0.7
143,0,"[780.7000000476837]",2,1,0.523783421937084,0.476216578062915,0,0,1,3,0,1,0.047566843874169,0,0,2,0.9,0.9
143,1,"[528.8999998569489]",2,0,0.409816318281977,0.590183681718023,0,0,2,3,0,1,0.180367363436046,0,0,2,0.9,0.9
143,0,"[470.40000009536743]",2,1,0.566831796236018,0.433168203763981,1,0,3,3,0,1,0.133663592472037,0,1,2,0.9,0.1
143,1,"[476.89999985694885]",2,1,0.574125358612015,0.425874641387984,1,1,4,3,0,1,0.148250717224031,1,1,2,0.9,0.1
143,1,"[833.6000001430511]",2,1,0.503426851242318,0.496573148757681,1,1,5,3,0,1,0.00685370248463701,1,1,2,0.9,0.1
143,1,"[535.5999999046326]",2,1,0.557854308239647,0.442145691760352,1,1,6,3,0,1,0.115708616479295,1,1,2,0.9,0.1
143,0,"[707]",2,0,0.479079524738964,0.520920475261035,1,1,7,3,0,1,0.041840950522071,1,1,2,0.9,0.1
143,1,"[555]",2,1,0.563954341310427,0.436045658689572,1,1,8,3,0,1,0.127908682620855,1,1,2,0.9,0.1
143,0,"[538]",2,0,0.446402431978444,0.553597568021556,1,1,9,3,0,1,0.107195136043112,1,1,2,0.9,0.1
143,0,"[567.3000001907349]",2,0,0.429788370113442,0.570211629886557,NaN,1,10,3,0,1,0.140423259773115,1,NaN,2,0.9,NaN
143,0,"[522.4000000953674]",2,0,0.420934797037556,0.579065202962443,1,1,11,3,0,1,0.158130405924887,1,1,2,0.9,0.1
143,0,"[731.9000000953674]",2,0,0.468252597350503,0.531747402649496,1,1,12,3,0,1,0.063494805298993,1,1,2,0.9,0.1
143,1,"[635.9000000953674]",2,1,0.540312909899316,0.459687090100683,1,1,13,3,0,1,0.080625819798633,1,1,2,0.9,0.1
143,1,"[519.5999999046326]",2,1,0.530953640057999,0.469046359942,1,1,14,3,0,1,0.0619072801159991,1,1,2,0.9,0.1
143,0,"[593.9000000953674]",2,0,0.415885722667095,0.584114277332904,1,1,15,3,0,1,0.168228554665809,1,1,2,0.9,0.1
143,0,"[541.9000000953674]",2,0,0.488175827552507,0.511824172447492,1,1,16,3,0,1,0.023648344894985,1,1,2,0.9,0.1
143,0,"[690.0999999046326]",2,0,0.473973613433016,0.526026386566983,1,1,17,3,0,1,0.0520527731339669,1,1,2,0.9,0.1
143,0,"[597.9000000953674]",2,0,0.443539919870782,0.556460080129217,1,1,18,3,0,1,0.112920160258435,1,1,2,0.9,0.1
143,1,"[794.2999999523163]",2,1,0.541923233563225,0.458076766436774,1,1,19,3,0,1,0.0838464671264511,1,1,2,0.9,0.1
143,1,"[719.7999999523163]",2,1,0.526168254336743,0.473831745663256,1,1,20,3,0,1,0.052336508673487,1,1,2,0.9,0.1
143,0,"[948.7000000476837]",2,0,0.401855959623783,0.598144040376216,1,1,21,3,0,1,0.196288080752433,1,1,2,0.9,0.1
143,1,"[504.59999990463257]",2,1,0.590774532331157,0.409225467668842,1,1,22,3,0,1,0.181549064662315,1,1,2,0.9,0.1
143,0,"[737.5999999046326]",2,0,0.477371170124413,0.522628829875586,1,1,23,3,0,1,0.045257659751173,1,1,2,0.9,0.1
143,1,"[529.2999999523163]",2,1,0.546678368424035,0.453321631575964,1,1,24,3,0,1,0.0933567368480711,1,1,2,0.9,0.1
143,0,"[607]",2,0,0.483549451089022,0.516450548910977,1,0,25,3,0,1,0.032901097821955,1,1,2,0.9,0.1
143,1,"[882.2000000476837]",3,0,0.0829204693820399,0.91707953061796,0,0,1,4,0,1,0.83415906123592,0,0,3,0.7,0.7
143,1,"[623.6000001430511]",3,0,0.0738821449482753,0.926117855051724,0,1,2,4,0,1,0.852235710103449,0,0,3,0.7,0.7
143,0,"[619.1999998092651]",3,1,0.856379264276102,0.143620735723897,0,1,3,4,0,1,0.712758528552205,0,0,3,0.7,0.7
143,0,"[1012.5]",3,1,0.897494379658415,0.102505620341584,1,0,4,4,0,1,0.794988759316831,0,1,3,0.7,0.3
143,0,"[637.4000000953674]",3,1,0.878922595260495,0.121077404739504,1,0,5,4,0,1,0.757845190520991,0,1,3,0.7,0.3
143,0,"[647.7000000476837]",3,0,0.0652159462414894,0.93478405375851,1,1,6,4,0,1,0.869568107517021,1,1,3,0.7,0.3
143,0,"[899.4000000953674]",3,0,0.0841077832347852,0.915892216765214,1,1,7,4,0,1,0.831784433530429,1,1,3,0.7,0.3
143,0,"[623.5999999046326]",3,0,0.122627517967725,0.877372482032274,0,0,8,4,0,1,0.754744964064549,1,0,3,0.7,0.7
143,1,"[720]",3,0,0.075931068364221,0.924068931635778,1,0,9,4,0,1,0.848137863271557,0,1,3,0.7,0.3
143,1,"[861.5]",3,0,0.063357875949679,0.936642124050321,1,0,10,4,0,1,0.873284248100642,0,1,3,0.7,0.3
143,1,"[607.9000000953674]",3,1,0.901646433975685,0.0983535660243141,0,0,11,4,0,1,0.803292867951371,1,0,3,0.7,0.7
143,0,"[624.6000001430511]",3,1,0.925023584349049,0.0749764156509502,1,0,12,4,0,1,0.850047168698099,0,1,3,0.7,0.3
143,0,"[433.7999999523163]",3,1,0.928712911052773,0.0712870889472269,1,0,13,4,0,1,0.857425822105546,0,1,3,0.7,0.3
143,1,"[735.8000001907349]",3,1,0.922461076828435,0.0775389231715648,1,0,14,4,0,1,0.84492215365687,1,1,3,0.7,0.3
143,0,"[631.2999999523163]",3,0,0.113898489791227,0.886101510208772,1,1,15,4,0,1,0.772203020417545,1,1,3,0.7,0.3
143,1,"[509.59999990463257]",3,1,0.922329302282948,0.0776706977170514,1,1,16,4,0,1,0.844658604565897,1,1,3,0.7,0.3
143,0,"[719.4000000953674]",3,0,0.149423812526827,0.850576187473173,1,1,17,4,0,1,0.701152374946346,1,1,3,0.7,0.3
143,0,"[641.2000000476837]",3,0,0.0996358540255876,0.900364145974412,1,1,18,4,0,1,0.800728291948824,1,1,3,0.7,0.3
143,1,"[603.7000000476837]",3,1,0.909848011687159,0.0901519883128405,1,1,19,4,0,1,0.819696023374318,1,1,3,0.7,0.3
143,1,"[583.3999998569489]",3,1,0.859916806187496,0.140083193812503,1,1,20,4,0,1,0.719833612374993,1,1,3,0.7,0.3
143,1,"[543.3999998569489]",3,1,0.948867732161188,0.0511322678388118,1,1,21,4,0,1,0.897735464322376,1,1,3,0.7,0.3
143,0,"[580.2999999523163]",3,0,0.0632823440468445,0.936717655953155,0,0,22,4,0,1,0.873435311906311,1,0,3,0.7,0.7
143,1,"[556.2999999523163]",3,0,0.084432584384298,0.915567415615701,1,0,23,4,0,1,0.831134831231403,0,1,3,0.7,0.3
143,0,"[824]",3,1,0.856741445297511,0.143258554702489,0,1,24,4,0,1,0.713482890595022,0,0,3,0.7,0.7
143,1,"[600.5]",3,0,0.0881761927559048,0.911823807244095,0,1,25,4,0,1,0.82364761448819,0,0,3,0.7,0.7
143,1,"[484.5]",3,0,0.0545222389912077,0.945477761008792,1,0,1,5,1,0,0.890955522017584,1,0,3,0.7,0.7
143,0,"[541.7999999523163]",3,0,0.103058337916975,0.896941662083024,0,0,2,5,1,0,0.793883324166049,0,1,3,0.7,0.3
143,0,"[632.0999999046326]",3,1,0.908793677146012,0.0912063228539878,0,1,3,5,1,0,0.817587354292024,1,1,3,0.7,0.3
143,1,"[695.5]",3,0,0.0645449066730002,0.935455093326999,0,1,4,5,1,0,0.870910186653999,1,1,3,0.7,0.3
143,0,"[776.8999998569489]",3,1,0.944445839639137,0.0555541603608624,1,0,5,5,1,0,0.888891679278275,1,0,3,0.7,0.7
143,0,"[654.0999999046326]",3,0,0.119052081005374,0.880947918994625,1,1,6,5,1,0,0.761895837989251,0,0,3,0.7,0.7
143,0,"[929.5]",3,1,0.882837237726632,0.117162762273367,0,1,7,5,1,0,0.765674475453265,1,1,3,0.7,0.3
143,0,"[447.7999999523163]",3,1,0.941209965902218,0.0587900340977821,1,0,8,5,1,0,0.882419931804436,1,0,3,0.7,0.7
143,1,"[435]",3,1,0.902859917014838,0.0971400829851615,0,0,9,5,1,0,0.805719834029677,0,1,3,0.7,0.3
143,1,"[751.7000000476837]",3,0,0.0601742560114653,0.939825743988534,NaN,1,10,5,1,0,0.879651487977069,1,NaN,3,0.7,NaN
143,1,"[379.2999999523163]",3,0,0.0553838916387853,0.944616108361214,NaN,1,11,5,1,0,0.889232216722429,1,NaN,3,0.7,NaN
143,1,"[446.10000014305115]",3,0,0.0910135566833565,0.908986443316643,1,0,12,5,1,0,0.817972886633286,1,0,3,0.7,0.7
143,1,"[572.5999999046326]",3,0,0.115317258332041,0.884682741667958,0,1,13,5,1,0,0.769365483335917,1,1,3,0.7,0.3
143,0,"[712.5999999046326]",3,1,0.895439633522576,0.104560366477423,0,1,14,5,1,0,0.790879267045153,1,1,3,0.7,0.3
143,0,"[546.5999999046326]",3,1,0.896047135000863,0.103952864999136,0,1,15,5,1,0,0.792094270001727,1,1,3,0.7,0.3
143,1,"[883.6999998092651]",3,0,0.0906992603796483,0.909300739620351,0,1,16,5,1,0,0.818601479240703,1,1,3,0.7,0.3
143,0,"[815]",3,0,0.102205343193165,0.897794656806834,0,0,17,5,1,0,0.795589313613669,0,1,3,0.7,0.3
143,0,"[594.3999998569489]",3,1,0.942107630072541,0.057892369927459,NaN,1,18,5,1,0,0.884215260145082,1,NaN,3,0.7,NaN
143,1,"[810.2999999523163]",3,0,0.0888882524281329,0.911111747571867,0,1,19,5,1,0,0.822223495143734,1,1,3,0.7,0.3
143,0,"[677.5]",3,1,0.897569596092415,0.102430403907584,0,1,20,5,1,0,0.795139192184831,1,1,3,0.7,0.3
143,0,"[712.5999999046326]",3,1,0.918181880784933,0.0818181192150663,0,0,21,5,1,0,0.836363761569867,1,1,3,0.7,0.3
143,1,"[891.0999999046326]",3,0,0.101647933258762,0.898352066741237,1,0,22,5,1,0,0.796704133482475,1,0,3,0.7,0.7
143,0,"[473.90000009536743]",3,1,0.946761075701645,0.0532389242983549,0,1,23,5,1,0,0.89352215140329,1,1,3,0.7,0.3
143,1,"[529.3999998569489]",3,0,0.0511027269676993,0.9488972730323,0,1,24,5,1,0,0.897794546064601,1,1,3,0.7,0.3
143,0,"[497.19999980926514]",3,1,0.925963717860994,0.0740362821390051,0,0,25,5,1,0,0.851927435721989,1,1,3,0.7,0.3
143,1,"[735.4000000953674]",2,0,0.462627337121468,0.537372662878531,1,1,1,6,1,0,0.0747453257570631,1,0,2,0.9,0.9
143,1,"[954.8999998569489]",2,0,0.480026379333248,0.519973620666751,0,1,2,6,1,0,0.039947241333503,1,1,2,0.9,0.1
143,1,"[552.5]",2,0,0.451367293999148,0.548632706000851,1,1,3,6,1,0,0.097265412001703,1,0,2,0.9,0.9
143,1,"[584.7999999523163]",2,0,0.440676571778007,0.559323428221992,0,1,4,6,1,0,0.118646856443985,1,1,2,0.9,0.1
143,1,"[488.09999990463257]",2,0,0.431602343697023,0.568397656302976,0,1,5,6,1,0,0.136795312605953,1,1,2,0.9,0.1
143,1,"[558.7999999523163]",2,0,0.416151202545713,0.583848797454286,0,1,6,6,1,0,0.167697594908573,1,1,2,0.9,0.1
143,1,"[609.7999999523163]",2,1,0.515536253083673,0.484463746916326,0,0,7,6,1,0,0.031072506167347,0,1,2,0.9,0.1
143,1,"[674.2000000476837]",2,0,0.471459945684721,0.528540054315278,0,1,8,6,1,0,0.057080108630557,1,1,2,0.9,0.1
143,1,"[711.2999999523163]",2,0,0.489854501801476,0.510145498198523,0,1,9,6,1,0,0.020290996397047,1,1,2,0.9,0.1
143,0,"[559.5]",2,1,0.529618501696349,0.47038149830365,0,1,10,6,1,0,0.0592370033926991,1,1,2,0.9,0.1
143,1,"[491.5]",2,0,0.438801202853452,0.561198797146547,0,1,11,6,1,0,0.122397594293095,1,1,2,0.9,0.1
143,0,"[675.7999999523163]",2,1,0.541082492548923,0.458917507451076,0,1,12,6,1,0,0.082164985097847,1,1,2,0.9,0.1
143,0,"[597.8999998569489]",2,1,0.569506415518241,0.430493584481758,0,1,13,6,1,0,0.139012831036483,1,1,2,0.9,0.1
143,0,"[772.5]",2,0,0.483890903649212,0.516109096350787,0,0,14,6,1,0,0.0322181927015751,0,1,2,0.9,0.1
143,0,"[773.3000001907349]",2,1,0.559145020705991,0.440854979294008,0,1,15,6,1,0,0.118290041411983,1,1,2,0.9,0.1
143,0,"[765.8999998569489]",2,1,0.540946151757385,0.459053848242614,0,1,16,6,1,0,0.081892303514771,1,1,2,0.9,0.1
143,0,"[595.5]",2,1,0.577692797471445,0.422307202528554,0,1,17,6,1,0,0.155385594942891,1,1,2,0.9,0.1
143,0,"[537.9000000953674]",2,1,0.581461459339422,0.418538540660577,0,1,18,6,1,0,0.162922918678845,1,1,2,0.9,0.1
143,0,"[910.4000000953674]",2,0,0.499553047526076,0.500446952473923,0,0,19,6,1,0,0.000893904947847024,0,1,2,0.9,0.1
143,0,"[421]",2,1,0.594111393024898,0.405888606975101,0,1,20,6,1,0,0.188222786049797,1,1,2,0.9,0.1
143,0,"[569]",2,1,0.513895523796393,0.486104476203606,0,1,21,6,1,0,0.0277910475927871,1,1,2,0.9,0.1
143,0,"[761.5999999046326]",2,1,0.524060427346206,0.475939572653793,0,1,22,6,1,0,0.048120854692413,1,1,2,0.9,0.1
143,1,"[478.09999990463257]",2,0,0.418276567535808,0.581723432464191,0,0,23,6,1,0,0.163446864928383,1,1,2,0.9,0.1
143,0,"[552]",2,1,0.567730453349336,0.432269546650663,0,0,24,6,1,0,0.135460906698673,1,1,2,0.9,0.1
143,1,"[657]",2,0,0.483658671028955,0.516341328971044,0,0,25,6,1,0,0.032682657942089,1,1,2,0.9,0.1
143,0,"[930.1999998092651]",1,1,0.547375211064902,0.452624788935097,0,1,1,7,0,1,0.0947504221298049,0,0,1,0.7,0.7
143,0,"[489]",1,1,0.577936134189182,0.422063865810817,1,0,2,7,0,1,0.155872268378365,0,1,1,0.7,0.3
143,1,"[689.5]",1,1,0.530784665795498,0.469215334204501,1,1,3,7,0,1,0.061569331590997,1,1,1,0.7,0.3
143,0,"[555.1000001430511]",1,0,0.403698056947356,0.596301943052643,1,1,4,7,0,1,0.192603886105287,1,1,1,0.7,0.3
143,0,"[513.8999998569489]",1,0,0.415820877962866,0.584179122037133,0,0,5,7,0,1,0.168358244074267,1,0,1,0.7,0.7
143,0,"[586.5]",1,1,0.568859107125945,0.431140892874054,0,1,6,7,0,1,0.137718214251891,0,0,1,0.7,0.7
143,0,"[448]",1,1,0.598791437043183,0.401208562956816,1,0,7,7,0,1,0.197582874086367,0,1,1,0.7,0.3
143,1,"[627.1000001430511]",1,1,0.599662276520934,0.400337723479065,1,1,8,7,0,1,0.199324553041869,1,1,1,0.7,0.3
143,0,"[619.7000000476837]",1,0,0.466284863033328,0.533715136966671,1,1,9,7,0,1,0.0674302739333431,1,1,1,0.7,0.3
143,1,"[602]",1,1,0.536340021369715,0.463659978630284,0,0,10,7,0,1,0.072680042739431,1,0,1,0.7,0.7
143,1,"[569.2999999523163]",1,1,0.513122866544279,0.48687713345572,1,1,11,7,0,1,0.026245733088559,1,1,1,0.7,0.3
143,0,"[776.2000000476837]",1,0,0.435649992891616,0.564350007108383,0,0,12,7,0,1,0.128700014216767,1,0,1,0.7,0.7
143,1,"[562.5]",1,0,0.487089808478907,0.512910191521092,NaN,0,13,7,0,1,0.025820383042185,0,NaN,1,0.7,NaN
143,1,"[650.2000000476837]",1,1,0.541704951946163,0.458295048053837,1,1,14,7,0,1,0.083409903892326,1,1,1,0.7,0.3
143,0,"[674.3999998569489]",1,0,0.459506454151153,0.540493545848846,1,1,15,7,0,1,0.080987091697693,1,1,1,0.7,0.3
143,1,"[631.5]",1,1,0.575578370128383,0.424421629871616,1,1,16,7,0,1,0.151156740256767,1,1,1,0.7,0.3
143,1,"[461.39999985694885]",1,1,0.566689705270394,0.433310294729605,1,1,17,7,0,1,0.133379410540789,1,1,1,0.7,0.3
143,1,"[734.5999999046326]",1,0,0.492713171551165,0.507286828448834,0,0,18,7,0,1,0.014573656897669,0,0,1,0.7,0.7
143,1,"[491.89999985694885]",1,1,0.589376492946148,0.410623507053851,0,0,19,7,0,1,0.178752985892297,1,0,1,0.7,0.7
143,0,"[615.7000000476837]",1,0,0.468220611251363,0.531779388748636,1,1,20,7,0,1,0.063558777497273,1,1,1,0.7,0.3
143,0,"[400.2000000476837]",1,0,0.400440803695539,0.59955919630446,1,1,21,7,0,1,0.199118392608921,1,1,1,0.7,0.3
143,0,"[755.1999998092651]",1,0,0.498676888043946,0.501323111956053,1,0,22,7,0,1,0.00264622391210695,1,1,1,0.7,0.3
143,0,"[528.5999999046326]",1,0,0.408906947609147,0.591093052390852,1,1,23,7,0,1,0.182186104781705,1,1,1,0.7,0.3
143,1,"[569.6000001430511]",1,1,0.570865337514914,0.429134662485085,NaN,1,24,7,0,1,0.141730675029829,1,NaN,1,0.7,NaN
143,0,"[494.2999999523163]",1,0,0.401635408770123,0.598364591229876,NaN,0,25,7,0,1,0.196729182459753,1,NaN,1,0.7,NaN
143,1,"[745.7999999523163]",1,1,0.500980503939605,0.499019496060394,0.5,0,1,8,0,0,0.00196100787921105,1,0.5,1,0.7,0.2
143,0,"[983.5999999046326]",1,1,0.514736258984668,0.485263741015331,0,0,2,8,0,0,0.029472517969337,0,1,1,0.7,0.3
143,1,"[508.2000000476837]",1,1,0.57118398626338,0.428816013736619,0,1,3,8,0,0,0.142367972526761,1,1,1,0.7,0.3
143,1,"[454.40000009536743]",1,1,0.599796812840249,0.40020318715975,1,0,4,8,0,0,0.199593625680499,1,0,1,0.7,0.7
143,0,"[853.5]",1,0,0.49972731722748,0.500272682772519,1,0,5,8,0,0,0.000545365545039034,1,0,1,0.7,0.7
143,1,"[469.2000000476837]",1,0,0.431044343826696,0.568955656173303,0,0,6,8,0,0,0.137911312346607,0,1,1,0.7,0.3
143,1,"[567.4000000953674]",1,0,0.41810425065576,0.581895749344239,0,0,7,8,0,0,0.163791498688479,0,1,1,0.7,0.3
143,1,"[642.7999999523163]",1,1,0.592209727186005,0.407790272813994,NaN,1,8,8,0,0,0.184419454372011,1,NaN,1,0.7,NaN
143,0,"[648.4000000953674]",1,0,0.491225912229843,0.508774087770156,0,0,9,8,0,0,0.017548175540313,1,1,1,0.7,0.3
143,0,"[678.3000001907349]",1,0,0.499835097514129,0.50016490248587,0,1,10,8,0,0,0.000329804971740955,1,1,1,0.7,0.3
143,1,"[958.4000000953674]",1,1,0.523580433906973,0.476419566093026,0,1,11,8,0,0,0.047160867813947,1,1,1,0.7,0.3
143,1,"[470.2000000476837]",1,1,0.545319291566979,0.45468070843302,0,0,12,8,0,0,0.090638583133959,1,1,1,0.7,0.3
143,1,"[461.59999990463257]",1,1,0.533733738866116,0.466266261133883,0,1,13,8,0,0,0.067467477732233,1,1,1,0.7,0.3
143,0,"[567.7999999523163]",1,0,0.475241325924068,0.524758674075931,0,1,14,8,0,0,0.049517348151863,1,1,1,0.7,0.3
143,1,"[591.9000000953674]",1,1,0.56065865818174,0.439341341818259,0,1,15,8,0,0,0.121317316363481,1,1,1,0.7,0.3
143,0,"[575.8999998569489]",1,0,0.45004358123038,0.549956418769619,0,1,16,8,0,0,0.099912837539239,1,1,1,0.7,0.3
143,0,"[648.7999999523163]",1,0,0.470407577577054,0.529592422422945,0,1,17,8,0,0,0.059184844845891,1,1,1,0.7,0.3
143,1,"[656.2999999523163]",1,0,0.438063708940845,0.561936291059154,NaN,0,18,8,0,0,0.123872582118309,0,NaN,1,0.7,NaN
143,1,"[835.8000001907349]",1,1,0.540840241208619,0.45915975879138,0,1,19,8,0,0,0.081680482417239,1,1,1,0.7,0.3
143,1,"[691.5999999046326]",1,1,0.501022262093922,0.498977737906077,0,1,20,8,0,0,0.00204452418784495,1,1,1,0.7,0.3
143,1,"[850.4000000953674]",1,1,0.53176775828777,0.468232241712229,0,0,21,8,0,0,0.063535516575541,1,1,1,0.7,0.3
143,0,"[659.2000000476837]",1,0,0.401334635198168,0.598665364801831,0,1,22,8,0,0,0.197330729603663,1,1,1,0.7,0.3
143,0,"[526.2999999523163]",1,0,0.418154114310283,0.581845885689716,0,0,23,8,0,0,0.163691771379433,1,1,1,0.7,0.3
143,0,"[581.0999999046326]",1,0,0.415330169511881,0.584669830488118,0,0,24,8,0,0,0.169339660976237,1,1,1,0.7,0.3
143,0,"[525.5999999046326]",1,0,0.489596902422338,0.510403097577661,NaN,0,25,8,0,0,0.020806195155323,1,NaN,1,0.7,NaN
143,1,"[659.7999999523163]",1,0,0.441824770118239,0.55817522988176,0,0,1,9,1,0,0.116350459763521,1,1,1,0.7,0.3
143,1,"[615.7000000476837]",1,0,0.443374641520562,0.556625358479437,0,1,2,9,1,0,0.113250716958875,1,1,1,0.7,0.3
143,1,"[533.5999999046326]",1,0,0.447439688323784,0.552560311676215,0,1,3,9,1,0,0.105120623352431,1,1,1,0.7,0.3
143,1,"[427.7999999523163]",1,0,0.447675662322694,0.552324337677305,0,0,4,9,1,0,0.104648675354611,1,1,1,0.7,0.3
143,1,"[583.6999998092651]",1,0,0.47805655918447,0.521943440815529,0,1,5,9,1,0,0.043886881631059,1,1,1,0.7,0.3
143,0,"[463.5]",1,1,0.59573580365589,0.404264196344109,0,1,6,9,1,0,0.191471607311781,1,1,1,0.7,0.3
143,1,"[354.7000000476837]",1,0,0.410854328054995,0.589145671945004,0,0,7,9,1,0,0.178291343890009,1,1,1,0.7,0.3
143,1,"[608]",1,0,0.480916442821884,0.519083557178115,0,1,8,9,1,0,0.038167114356231,1,1,1,0.7,0.3
143,0,"[616]",1,1,0.528956086877743,0.471043913122256,0,0,9,9,1,0,0.057912173755487,1,1,1,0.7,0.3
143,0,"[576.7999999523163]",1,0,0.491758506739886,0.508241493260113,1,0,10,9,1,0,0.016482986520227,0,0,1,0.7,0.7
143,1,"[732.5999999046326]",1,1,0.563683092769038,0.436316907230961,0,0,11,9,1,0,0.127366185538077,0,1,1,0.7,0.3
143,0,"[557.5999999046326]",1,1,0.571224415288456,0.428775584711543,0,1,12,9,1,0,0.142448830576913,1,1,1,0.7,0.3
143,1,"[577.3999998569489]",1,0,0.40855582955807,0.591444170441929,0,1,13,9,1,0,0.182888340883859,1,1,1,0.7,0.3
143,1,"[522]",1,0,0.406533275030239,0.59346672496976,1,1,14,9,1,0,0.186933449939521,1,0,1,0.7,0.7
143,0,"[488.09999990463257]",1,1,0.573324769485989,0.42667523051401,0,1,15,9,1,0,0.146649538971979,1,1,1,0.7,0.3
143,0,"[452.09999990463257]",1,1,0.573444999337338,0.426555000662661,0,1,16,9,1,0,0.146889998674677,1,1,1,0.7,0.3
143,0,"[793.5]",1,1,0.537638228009815,0.462361771990184,0,1,17,9,1,0,0.075276456019631,1,1,1,0.7,0.3
143,0,"[623.7999999523163]",1,0,0.461040213709431,0.538959786290568,0,1,18,9,1,0,0.077919572581137,0,1,1,0.7,0.3
143,0,"[492.90000009536743]",1,1,0.559704070016971,0.440295929983028,0,1,19,9,1,0,0.119408140033943,1,1,1,0.7,0.3
143,0,"[463.09999990463257]",1,1,0.535395936576593,0.464604063423406,0,1,20,9,1,0,0.070791873153187,1,1,1,0.7,0.3
143,0,"[432.60000014305115]",1,1,0.596984961350026,0.403015038649973,NaN,0,21,9,1,0,0.193969922700053,1,NaN,1,0.7,NaN
143,0,"[673.2000000476837]",1,1,0.517109412378618,0.482890587621382,0,1,22,9,1,0,0.034218824757236,1,1,1,0.7,0.3
143,1,"[622.9000000953674]",1,0,0.472507195645262,0.527492804354737,0,1,23,9,1,0,0.054985608709475,1,1,1,0.7,0.3
143,0,"[536.4000000953674]",1,0,0.49015015159068,0.509849848409319,0,0,24,9,1,0,0.019699696818639,0,1,1,0.7,0.3
143,0,"[437.7000000476837]",1,1,0.58190141255477,0.418098587445229,0,0,25,9,1,0,0.163802825109541,1,1,1,0.7,0.3
143,0,"[659.7000000476837]",3,1,0.896428561553132,0.103571438446867,1,1,1,10,0,0,0.792857123106265,0,0,3,0.7,0.7
143,0,"[376.7999999523163]",3,1,0.924436470736713,0.0755635292632862,0,0,2,10,0,0,0.848872941473427,0,1,3,0.7,0.3
143,0,"[526.3999998569489]",3,1,0.870274901189802,0.129725098810197,0,0,3,10,0,0,0.740549802379605,0,1,3,0.7,0.3
143,0,"[560]",3,0,0.0610934682684309,0.938906531731569,1,0,4,10,0,0,0.877813063463138,1,0,3,0.7,0.7
143,1,"[507.40000009536743]",3,0,0.0780944872846672,0.921905512715332,0,0,5,10,0,0,0.843811025430665,0,1,3,0.7,0.3
143,0,"[406.59999990463257]",3,1,0.941193660488118,0.0588063395118814,1,1,6,10,0,0,0.882387320976237,0,0,3,0.7,0.7
143,0,"[494.69999980926514]",3,1,0.872405738744994,0.127594261255005,1,0,7,10,0,0,0.744811477489989,0,0,3,0.7,0.7
143,1,"[335]",3,0,0.140819778680577,0.859180221319422,0,0,8,10,0,0,0.718360442638845,0,1,3,0.7,0.3
143,1,"[445.7000000476837]",3,1,0.879959185309065,0.120040814690934,0,1,9,10,0,0,0.759918370618131,1,1,3,0.7,0.3
143,0,"[442.09999990463257]",3,0,0.0829907887020786,0.917009211297921,1,0,10,10,0,0,0.834018422595842,1,0,3,0.7,0.7
143,0,"[384.5]",3,1,0.923578794514889,0.0764212054851101,1,1,11,10,0,0,0.847157589029779,0,0,3,0.7,0.7
143,1,"[736,878.2999999523163]",3,0,0.125612523114494,0.874387476885506,0,0,12,10,0,0,0.748774953771012,0,1,3,0.7,0.3
143,1,"[500.69999980926514]",3,0,0.0831932802314039,0.916806719768596,0,0,13,10,0,0,0.833613439537192,0,1,3,0.7,0.3
143,0,"[415.7999999523163]",3,1,0.912933554707803,0.0870664452921965,0,0,14,10,0,0,0.825867109415606,0,1,3,0.7,0.3
143,0,"[751.7999999523163]",3,0,0.0554602142481052,0.944539785751894,0,1,15,10,0,0,0.889079571503789,1,1,3,0.7,0.3
143,1,"[524.5]",3,1,0.937432664037223,0.062567335962776,0,1,16,10,0,0,0.874865328074447,1,1,3,0.7,0.3
143,0,"[425]",3,0,0.100204233204573,0.899795766795426,0,1,17,10,0,0,0.799591533590853,1,1,3,0.7,0.3
143,0,"[433.89999985694885]",3,0,0.149485619457991,0.850514380542008,0,1,18,10,0,0,0.701028761084017,1,1,3,0.7,0.3
143,1,"[427.2000000476837]",3,1,0.93195291384612,0.0680470861538796,0,1,19,10,0,0,0.86390582769224,1,1,3,0.7,0.3
143,0,"[548.3999998569489]",3,0,0.133774280225785,0.866225719774214,1,0,20,10,0,0,0.732451439548429,1,0,3,0.7,0.7
143,0,"[560.7999999523163]",3,1,0.926045725338123,0.0739542746618762,0,0,21,10,0,0,0.852091450676247,0,1,3,0.7,0.3
143,0,"[476.5]",3,0,0.137686562666824,0.862313437333175,0,1,22,10,0,0,0.724626874666351,1,1,3,0.7,0.3
143,0,"[647.5999999046326]",3,0,0.059248676406094,0.940751323593906,1,0,23,10,0,0,0.881502647187812,1,0,3,0.7,0.7
143,0,"[612.2999999523163]",3,1,0.908588545125462,0.0914114548745379,1,1,24,10,0,0,0.817177090250924,0,0,3,0.7,0.7
143,0,"[472.5]",3,0,0.0958707634475434,0.904129236552456,0,0,25,10,0,0,0.808258473104913,1,1,3,0.7,0.3
143,0,"[550]",3,0,0.0697663588084748,0.930233641191525,0,1,1,11,1,1,0.86046728238305,0,0,3,0.7,0.7
143,1,"[581.3999998569489]",3,1,0.889494500611318,0.110505499388681,0,0,2,11,1,1,0.778989001222637,0,0,3,0.7,0.7
143,0,"[398.2000000476837]",3,0,0.139400085218244,0.860599914781755,1,0,3,11,1,1,0.721199829563511,0,1,3,0.7,0.3
143,1,"[422.89999985694885]",3,0,0.0701215588612721,0.929878441138727,0,1,4,11,1,1,0.859756882277455,1,0,3,0.7,0.7
143,1,"[370.09999990463257]",3,0,0.110745397809217,0.889254602190782,0,0,5,11,1,1,0.778509204381565,1,0,3,0.7,0.7
143,1,"[445]",3,1,0.92226644833574,0.0777335516642594,NaN,1,6,11,1,1,0.844532896671481,0,NaN,3,0.7,NaN
143,1,"[671.2999999523163]",3,1,0.911374554020026,0.0886254459799739,1,0,7,11,1,1,0.822749108040052,0,1,3,0.7,0.3
143,1,"[946.3999998569489]",3,1,0.875382714201286,0.124617285798713,0.5,0,8,11,1,1,0.750765428402573,0,0.5,3,0.7,0.2
143,0,"[614.7000000476837]",3,1,0.91425374506143,0.0857462549385692,1,0,9,11,1,1,0.828507490122861,1,1,3,0.7,0.3
143,1,"[463.30000019073486]",3,1,0.940308782167848,0.0596912178321519,0.5,0,10,11,1,1,0.880617564335696,0,0.5,3,0.7,0.2
143,1,"[584.6000001430511]",3,0,0.0736247956387228,0.926375204361277,1,1,11,11,1,1,0.852750408722554,1,1,3,0.7,0.3
143,1,"[368.7000000476837]",3,0,0.125620211421555,0.874379788578444,1,1,12,11,1,1,0.748759577156889,1,1,3,0.7,0.3
143,0,"[648.2000000476837]",3,1,0.941205717090657,0.058794282909342,1,1,13,11,1,1,0.882411434181315,1,1,3,0.7,0.3
143,1,"[506]",3,0,0.0685321096148544,0.931467890385145,0,0,14,11,1,1,0.862935780770291,1,0,3,0.7,0.7
143,0,"[494.09999990463257]",3,0,0.0789200728767896,0.92107992712321,0,0,15,11,1,1,0.84215985424642,0,0,3,0.7,0.7
143,1,"[485.2000000476837]",3,1,0.878467991091157,0.121532008908842,1,0,16,11,1,1,0.756935982182315,0,1,3,0.7,0.3
143,1,"[485.7999999523163]",3,0,0.125429317538622,0.874570682461377,1,1,17,11,1,1,0.749141364922755,1,1,3,0.7,0.3
143,0,"[515.9000000953674]",3,1,0.908716036363684,0.0912839636363151,1,1,18,11,1,1,0.817432072727369,1,1,3,0.7,0.3
143,1,"[629]",3,0,0.0997885722776377,0.900211427722362,1,1,19,11,1,1,0.800422855444724,1,1,3,0.7,0.3
143,0,"[673.7999999523163]",3,1,0.894794662088953,0.105205337911046,1,1,20,11,1,1,0.789589324177907,1,1,3,0.7,0.3
143,0,"[505.09999990463257]",3,1,0.94298174250022,0.0570182574997799,1,0,21,11,1,1,0.88596348500044,1,1,3,0.7,0.3
143,0,"[570.5999999046326]",3,1,0.855508513131351,0.144491486868648,0.75,1,22,11,1,1,0.711017026262703,1,0.75,3,0.7,0.05
143,1,"[482.90000009536743]",3,0,0.108199220380546,0.891800779619453,1,1,23,11,1,1,0.783601559238907,1,1,3,0.7,0.3
143,0,"[526.2999999523163]",3,1,0.877736793360718,0.122263206639281,0,0,24,11,1,1,0.755473586721437,1,0,3,0.7,0.7
143,1,"[494.30000019073486]",3,0,0.145360531280305,0.854639468719694,0,0,25,11,1,1,0.709278937439389,1,0,3,0.7,0.7
143,0,"[682]",2,1,0.570118378457375,0.429881621542624,1,1,1,12,1,1,0.140236756914751,1,1,2,0.9,0.1
143,0,"[386.09999990463257]",2,1,0.577717424019852,0.422282575980147,1,1,2,12,1,1,0.155434848039705,1,1,2,0.9,0.1
143,1,"[435.69999980926514]",2,0,0.422805944787617,0.577194055212382,1,1,3,12,1,1,0.154388110424765,1,1,2,0.9,0.1
143,1,"[425.89999985694885]",2,0,0.40218478408666,0.597815215913339,1,1,4,12,1,1,0.195630431826679,1,1,2,0.9,0.1
143,0,"[425.69999980926514]",2,1,0.590061340922566,0.409938659077433,1,1,5,12,1,1,0.180122681845133,1,1,2,0.9,0.1
143,0,"[411.60000014305115]",2,1,0.51937033918506,0.480629660814939,1,1,6,12,1,1,0.038740678370121,1,1,2,0.9,0.1
143,1,"[721.0999999046326]",2,0,0.49150840329722,0.508491596702779,1,1,7,12,1,1,0.016983193405559,1,1,2,0.9,0.1
143,0,"[580.0999999046326]",2,1,0.576206876000449,0.42379312399955,1,1,8,12,1,1,0.152413752000899,1,1,2,0.9,0.1
143,1,"[476]",2,0,0.458072397019399,0.5419276029806,1,1,9,12,1,1,0.0838552059612011,1,1,2,0.9,0.1
143,0,"[709.8999998569489]",2,0,0.481302732583941,0.518697267416058,1,0,10,12,1,1,0.037394534832117,0,1,2,0.9,0.1
143,0,"[649.2000000476837]",2,1,0.51672466315073,0.483275336849269,1,1,11,12,1,1,0.033449326301461,1,1,2,0.9,0.1
143,1,"[576.9000000953674]",2,0,0.483933581978801,0.516066418021198,1,1,12,12,1,1,0.032132836042397,1,1,2,0.9,0.1
143,1,"[484.40000009536743]",2,0,0.412123333058708,0.587876666941291,1,1,13,12,1,1,0.175753333882583,1,1,2,0.9,0.1
143,0,"[559.1000001430511]",2,1,0.564554064561856,0.435445935438143,1,1,14,12,1,1,0.129108129123713,1,1,2,0.9,0.1
143,0,"[506.2999999523163]",2,1,0.578495877362787,0.421504122637213,1,1,15,12,1,1,0.156991754725574,1,1,2,0.9,0.1
143,1,"[546.5999999046326]",2,0,0.460718607472078,0.539281392527922,1,1,16,12,1,1,0.078562785055844,1,1,2,0.9,0.1
143,0,"[589.7999999523163]",2,1,0.551361487107339,0.44863851289266,1,1,17,12,1,1,0.102722974214679,1,1,2,0.9,0.1
143,1,"[570.2999999523163]",2,0,0.446092491501605,0.553907508498394,1,1,18,12,1,1,0.107815016996789,1,1,2,0.9,0.1
143,0,"[699.7999999523163]",2,1,0.50405502304828,0.495944976951719,1,1,19,12,1,1,0.00811004609656096,1,1,2,0.9,0.1
143,0,"[520.5]",2,1,0.569297764402398,0.430702235597602,NaN,1,20,12,1,1,0.138595528804796,1,NaN,2,0.9,NaN
143,1,"[787.4000000953674]",2,0,0.475644355762336,0.524355644237663,1,1,21,12,1,1,0.048711288475327,1,1,2,0.9,0.1
143,0,"[580]",2,1,0.533697571163885,0.466302428836114,1,1,22,12,1,1,0.0673951423277711,1,1,2,0.9,0.1
143,0,"[491.7000000476837]",2,1,0.513681885082864,0.486318114917135,NaN,1,23,12,1,1,0.0273637701657291,1,NaN,2,0.9,NaN
143,1,"[486.5]",2,0,0.430854096810473,0.569145903189526,1,1,24,12,1,1,0.138291806379053,1,1,2,0.9,0.1
143,0,"[626.2000000476837]",2,0,0.48414600764297,0.515853992357029,1,0,25,12,1,1,0.031707984714059,0,1,2,0.9,0.1
145,0,"[931.0999999998603]",3,1,0.940623347883029,0.05937665211697,0.22,1,1,1,1,0,0.881246695766059,1,0.78,3,0.7,0.0800000000000001
145,1,"[375.5999999998603]",3,0,0.073452891031609,0.926547108968391,0.62,0,2,1,1,0,0.853094217936782,1,0.38,3,0.7,0.32
145,0,"[512.3999999999069]",3,1,0.920231061067569,0.0797689389324305,0.2,1,3,1,1,0,0.840462122135138,1,0.8,3,0.7,0.1
145,1,"[637.2000000001863]",3,1,0.934086696455051,0.0659133035449489,0.11,0,4,1,1,0,0.868173392910102,0,0.89,3,0.7,0.19
145,1,"[700.5999999998603]",3,0,0.115009638801924,0.884990361198075,0.04,1,5,1,1,0,0.769980722396151,1,0.96,3,0.7,0.26
145,1,"[399.89999999990687]",3,0,0.108295260559657,0.891704739440342,0.21,0,6,1,1,0,0.783409478880685,1,0.79,3,0.7,0.0900000000000001
145,1,"[441]",3,0,0.0736613757796418,0.926338624220358,0.16,1,7,1,1,0,0.852677248440716,1,0.84,3,0.7,0.14
145,0,"[711.0999999998603]",3,1,0.909934320335744,0.0900656796642555,0.08,1,8,1,1,0,0.819868640671488,1,0.92,3,0.7,0.22
145,0,"[555.4000000001397]",3,1,0.902321864667064,0.0976781353329351,0.15,0,9,1,1,0,0.804643729334129,1,0.85,3,0.7,0.15
145,1,"[549.9000000001397]",3,0,0.108311087351814,0.891688912648185,0.14,1,10,1,1,0,0.783377825296371,1,0.86,3,0.7,0.16
145,1,"[803.5999999998603]",3,0,0.121707837924161,0.878292162075838,NaN,1,11,1,1,0,0.756584324151677,1,NaN,3,0.7,NaN
145,0,"[643.9000000001397]",3,0,0.08712136331671,0.91287863668329,0.36,1,12,1,1,0,0.82575727336658,0,0.64,3,0.7,0.0599999999999999
145,1,"[524.9000000001397]",3,0,0.120706133431694,0.879293866568305,0.23,1,13,1,1,0,0.758587733136611,1,0.77,3,0.7,0.0700000000000001
145,1,"[658.0999999998603]",3,0,0.0536245571102348,0.946375442889765,0.24,0,14,1,1,0,0.89275088577953,1,0.76,3,0.7,0.0600000000000001
145,0,"[680.8999999999069]",3,1,0.904069414277213,0.0959305857227866,0.36,1,15,1,1,0,0.808138828554426,1,0.64,3,0.7,0.0599999999999999
145,1,"[516.3999999999069]",3,1,0.915939380782177,0.0840606192178226,0.43,1,16,1,1,0,0.831878761564354,0,0.57,3,0.7,0.13
145,0,"[492.30000000004657]",3,1,0.925043927259729,0.0749560727402706,0.38,1,17,1,1,0,0.850087854519458,1,0.62,3,0.7,0.08
145,1,"[463.10000000009313]",3,1,0.856164388688387,0.143835611311612,0.46,1,18,1,1,0,0.712328777376775,0,0.54,3,0.7,0.16
145,0,"[655]",3,1,0.906945614428817,0.0930543855711829,0.44,1,19,1,1,0,0.813891228857634,1,0.56,3,0.7,0.14
145,0,"[538]",3,0,0.0845445248500843,0.915455475149915,0.25,0,20,1,1,0,0.830910950299831,0,0.75,3,0.7,0.05
145,0,"[759.5999999998603]",3,1,0.924882477061037,0.0751175229389622,0.25,1,21,1,1,0,0.849764954122075,1,0.75,3,0.7,0.05
145,0,"[909.1999999999534]",3,1,0.925840486864628,0.0741595131353712,0.35,0,22,1,1,0,0.851680973729257,1,0.65,3,0.7,0.0499999999999999
145,0,"[447]",3,1,0.876516647824868,0.123483352175131,0.38,1,23,1,1,0,0.753033295649737,1,0.62,3,0.7,0.08
145,0,"[618.5]",3,0,0.103325246957823,0.896674753042176,0.19,0,24,1,1,0,0.793349506084353,0,0.81,3,0.7,0.11
145,1,"[745.4000000001397]",3,0,0.0647678297177044,0.935232170282295,0.29,0,25,1,1,0,0.870464340564591,1,0.71,3,0.7,0.01
145,1,"[921.5]",3,0,0.0830887477805835,0.916911252219416,0.23,0,1,2,0,0,0.833822504438833,0,0.77,3,0.7,0.0700000000000001
145,1,"[442.0999999998603]",3,1,0.90515517648483,0.0948448235151691,0.13,1,2,2,0,0,0.810310352969661,1,0.87,3,0.7,0.17
145,0,"[451]",3,0,0.13773111370691,0.862268886293089,0.08,1,3,2,0,0,0.724537772586179,1,0.92,3,0.7,0.22
145,1,"[591]",3,1,0.905119834874934,0.094880165125066,0.24,0,4,2,0,0,0.810239669749868,1,0.76,3,0.7,0.0600000000000001
145,0,"[451.10000000009313]",3,0,0.141779226412559,0.85822077358744,0.17,1,5,2,0,0,0.716441547174881,1,0.83,3,0.7,0.13
145,1,"[512.1999999999534]",3,1,0.879845168233508,0.120154831766492,0.12,1,6,2,0,0,0.759690336467016,1,0.88,3,0.7,0.18
145,0,"[596.5]",3,0,0.0552080472826313,0.944791952717368,0.13,1,7,2,0,0,0.889583905434737,1,0.87,3,0.7,0.17
145,1,"[440.80000000004657]",3,0,0.102241155717378,0.897758844282621,0.29,1,8,2,0,0,0.795517688565243,0,0.71,3,0.7,0.01
145,1,"[838.5]",3,1,0.870129439019665,0.129870560980334,0.09,1,9,2,0,0,0.740258878039331,1,0.91,3,0.7,0.21
145,1,"[577.3000000000466]",3,1,0.942422596862625,0.0575774031373744,0.1,1,10,2,0,0,0.884845193725251,1,0.9,3,0.7,0.2
145,0,"[628.9000000001397]",3,0,0.117519837049569,0.88248016295043,0.1,1,11,2,0,0,0.764960325900861,1,0.9,3,0.7,0.2
145,1,"[549.8000000000466]",3,0,0.0778322819161675,0.922167718083832,0.25,1,12,2,0,0,0.844335436167664,0,0.75,3,0.7,0.05
145,1,"[537.3000000000466]",3,1,0.862544212281757,0.137455787718242,0.26,0,13,2,0,0,0.725088424563515,1,0.74,3,0.7,0.04
145,1,"[683.5]",3,1,0.895351112786316,0.104648887213683,0.23,1,14,2,0,0,0.790702225572633,1,0.77,3,0.7,0.0700000000000001
145,0,"[689.9000000001397]",3,0,0.145827265145776,0.854172734854223,0.25,1,15,2,0,0,0.708345469708447,1,0.75,3,0.7,0.05
145,1,"[665.6999999999534]",3,1,0.860466249078215,0.139533750921784,0.41,0,16,2,0,0,0.720932498156431,1,0.59,3,0.7,0.11
145,0,"[472.5999999998603]",3,0,0.0950515104834156,0.904948489516584,0.4,0,17,2,0,0,0.809896979033168,1,0.6,3,0.7,0.1
145,0,"[525.8000000000466]",3,1,0.927145846787906,0.0728541532120932,0.28,0,18,2,0,0,0.854291693575813,0,0.72,3,0.7,0.02
145,0,"[569.6000000000931]",3,1,0.930615514157908,0.0693844858420918,0.31,0,19,2,0,0,0.861231028315816,0,0.69,3,0.7,0.01
145,0,"[850.3999999999069]",3,0,0.0785611064179935,0.921438893582006,0.17,1,20,2,0,0,0.842877787164013,1,0.83,3,0.7,0.13
145,1,"[477.80000000004657]",3,1,0.856729943597596,0.143270056402403,0.15,1,21,2,0,0,0.713459887195193,1,0.85,3,0.7,0.15
145,1,"[450.69999999995343]",3,1,0.928762573819901,0.0712374261800984,0.13,1,22,2,0,0,0.857525147639803,1,0.87,3,0.7,0.17
145,1,"[688.1000000000931]",3,0,0.115875642758226,0.884124357241773,0.06,0,23,2,0,0,0.768248714483547,0,0.94,3,0.7,0.24
145,0,"[449]",3,0,0.105456899711429,0.89454310028857,0.08,0,24,2,0,0,0.789086200577141,1,0.92,3,0.7,0.22
145,1,"[380.0999999998603]",3,1,0.883421318045646,0.116578681954353,0.39,0,25,2,0,0,0.766842636091293,1,0.61,3,0.7,0.09
145,0,"[582.1999999999534]",2,0,0.464040848510026,0.535959151489973,0.22,0,1,3,1,0,0.0719183029799469,0,0.78,2,0.9,0.12
145,0,"[958]",2,1,0.517690962921335,0.482309037078664,0.09,1,2,3,1,0,0.035381925842671,1,0.91,2,0.9,0.01
145,1,"[680.1000000000931]",2,0,0.453827417243915,0.546172582756084,0.21,1,3,3,1,0,0.092345165512169,1,0.79,2,0.9,0.11
145,0,"[572.5]",2,1,0.502920575626183,0.497079424373816,0.1,1,4,3,1,0,0.00584115125236695,1,0.9,2,0.9,0
145,0,"[819.5]",2,1,0.505727857357096,0.494272142642903,0.13,1,5,3,1,0,0.011455714714193,1,0.87,2,0.9,0.03
145,1,"[611.8000000000466]",2,0,0.451662392056229,0.54833760794377,0.05,1,6,3,1,0,0.096675215887541,1,0.95,2,0.9,0.0499999999999999
145,1,"[609.1000000000931]",2,0,0.475117698807639,0.52488230119236,0.04,1,7,3,1,0,0.049764602384721,1,0.96,2,0.9,0.0599999999999999
145,1,"[786.3999999999069]",2,0,0.456047210631264,0.543952789368735,0.04,1,8,3,1,0,0.087905578737471,1,0.96,2,0.9,0.0599999999999999
145,1,"[895.3000000000466]",2,1,0.512339214264781,0.487660785735218,0.01,0,9,3,1,0,0.024678428529563,0,0.99,2,0.9,0.09
145,0,"[429.19999999995343]",2,1,0.595989077041775,0.404010922958224,0.01,1,10,3,1,0,0.191978154083551,1,0.99,2,0.9,0.09
145,0,"[547.8999999999069]",2,1,0.590177369721476,0.409822630278524,0.02,1,11,3,1,0,0.180354739442952,1,0.98,2,0.9,0.08
145,1,"[761.6999999999534]",2,0,0.484037456114858,0.515962543885141,0.02,1,12,3,1,0,0.031925087770283,1,0.98,2,0.9,0.08
145,0,"[437.70000000018626]",2,1,0.582779215372712,0.417220784627287,0.01,1,13,3,1,0,0.165558430745425,1,0.99,2,0.9,0.09
145,1,"[403.30000000004657]",2,0,0.433126059920615,0.566873940079384,0.01,1,14,3,1,0,0.133747880158769,1,0.99,2,0.9,0.09
145,0,"[737.5999999998603]",2,1,0.536949573163354,0.463050426836645,0.04,1,15,3,1,0,0.073899146326709,1,0.96,2,0.9,0.0599999999999999
145,1,"[448.79999999981374]",2,0,0.45362139358757,0.546378606412429,0,1,16,3,1,0,0.092757212824859,1,1,2,0.9,0.1
145,1,"[552.3000000000466]",2,0,0.450671307295406,0.549328692704593,0,1,17,3,1,0,0.0986573854091869,1,1,2,0.9,0.1
145,1,"[694.1999999999534]",2,0,0.486001251119046,0.513998748880953,0.01,1,18,3,1,0,0.027997497761907,1,0.99,2,0.9,0.09
145,1,"[769]",2,1,0.569802390746129,0.43019760925387,0,0,19,3,1,0,0.139604781492259,0,1,2,0.9,0.1
145,0,"[859.1000000000931]",2,1,0.515938523706649,0.48406147629335,0,1,20,3,1,0,0.0318770474132991,1,1,2,0.9,0.1
145,1,"[478.5]",2,0,0.417590912778704,0.582409087221295,0,1,21,3,1,0,0.164818174442591,1,1,2,0.9,0.1
145,1,"[565.6999999999534]",2,0,0.468249948857796,0.531750051142203,0,1,22,3,1,0,0.063500102284407,1,1,2,0.9,0.1
145,0,"[571.3000000000466]",2,1,0.570691325650463,0.429308674349537,0,1,23,3,1,0,0.141382651300926,1,1,2,0.9,0.1
145,1,"[844.1999999999534]",2,1,0.503638688711913,0.496361311288086,0,0,24,3,1,0,0.00727737742382695,0,1,2,0.9,0.1
145,0,"[906.5]",2,1,0.515877755502478,0.484122244497521,0,0,25,3,1,0,0.031755511004957,1,1,2,0.9,0.1
145,1,"[812.3000000000466]",3,0,0.12281693640549,0.877183063594509,0.22,0,1,4,1,1,0.754366127189019,1,0.22,3,0.7,0.48
145,0,"[454.9000000001397]",3,0,0.0863646975216702,0.913635302478329,0.48,0,2,4,1,1,0.827270604956659,0,0.48,3,0.7,0.22
145,1,"[583.6999999999534]",3,1,0.90663471778442,0.0933652822155791,0.61,0,3,4,1,1,0.813269435568841,0,0.61,3,0.7,0.09
145,0,"[632.4000000001397]",3,1,0.919136506183529,0.0808634938164707,0.72,1,4,4,1,1,0.838273012367058,1,0.72,3,0.7,0.02
145,1,"[414.4000000001397]",3,0,0.086679154536876,0.913320845463123,0.62,0,5,4,1,1,0.826641690926247,1,0.62,3,0.7,0.08
145,0,"[468.19999999995343]",3,1,0.880851327801331,0.119148672198668,0.75,1,6,4,1,1,0.761702655602663,1,0.75,3,0.7,0.05
145,0,"[391.19999999995343]",3,1,0.936760001642046,0.0632399983579531,0.55,0,7,4,1,1,0.873520003284093,1,0.55,3,0.7,0.15
145,0,"[579.1999999999534]",3,1,0.894484745012684,0.105515254987315,0.74,1,8,4,1,1,0.788969490025369,1,0.74,3,0.7,0.04
145,1,"[479.79999999981374]",3,0,0.119027496842141,0.880972503157858,0.76,1,9,4,1,1,0.761945006315717,1,0.76,3,0.7,0.0600000000000001
145,1,"[624.5999999998603]",3,0,0.0861644414219333,0.913835558578066,0.67,1,10,4,1,1,0.827671117156133,1,0.67,3,0.7,0.0299999999999999
145,0,"[457.80000000004657]",3,1,0.919522633805674,0.0804773661943254,0.63,0,11,4,1,1,0.839045267611349,1,0.63,3,0.7,0.07
145,1,"[335.80000000004657]",3,0,0.0552403196701315,0.944759680329868,0.47,0,12,4,1,1,0.889519360659736,1,0.47,3,0.7,0.23
145,0,"[585.3999999999069]",3,0,0.0871347890935625,0.912865210906437,0.58,0,13,4,1,1,0.825730421812874,0,0.58,3,0.7,0.12
145,0,"[665.1000000000931]",3,1,0.924729441721213,0.0752705582787861,0.57,1,14,4,1,1,0.849458883442427,1,0.57,3,0.7,0.13
145,1,"[821.5]",3,0,0.127570964712242,0.872429035287757,0.47,0,15,4,1,1,0.744858070575515,1,0.47,3,0.7,0.23
145,0,"[657.4000000003725]",3,1,0.890609826062511,0.109390173937488,0.43,0,16,4,1,1,0.781219652125023,1,0.43,3,0.7,0.27
145,1,"[370.8000000002794]",3,1,0.9065935396363,0.0934064603636992,0.56,0,17,4,1,1,0.813187079272601,0,0.56,3,0.7,0.14
145,1,"[542.6000000000931]",3,0,0.121105471303053,0.878894528696947,0.67,1,18,4,1,1,0.757789057393894,1,0.67,3,0.7,0.0299999999999999
145,1,"[425.5]",3,0,0.0531462572012002,0.946853742798799,0.69,1,19,4,1,1,0.893707485597599,1,0.69,3,0.7,0.01
145,0,"[517.1000000000931]",3,1,0.937774066567638,0.0622259334323619,0.75,1,20,4,1,1,0.875548133135276,1,0.75,3,0.7,0.05
145,0,"[541]",3,1,0.932127955300057,0.0678720446999428,0.62,0,21,4,1,1,0.864255910600114,1,0.62,3,0.7,0.08
145,0,"[523.5]",3,0,0.0947315365104538,0.905268463489546,0.76,0,22,4,1,1,0.810536926979092,0,0.76,3,0.7,0.0600000000000001
145,1,"[491.39999999990687]",3,0,0.12810549025003,0.871894509749969,0.75,1,23,4,1,1,0.743789019499939,1,0.75,3,0.7,0.05
145,0,"[535.2000000001863]",3,1,0.937752700492031,0.0622472995079686,0.84,0,24,4,1,1,0.875505400984062,1,0.84,3,0.7,0.14
145,1,"[414]",3,0,0.13351501322329,0.866484986776709,0.86,0,25,4,1,1,0.732969973553419,1,0.86,3,0.7,0.16
145,1,"[687.7000000001863]",1,1,0.58008453137775,0.419915468622249,0.62,0,1,5,0,0,0.160169062755501,1,0.38,1,0.7,0.32
145,1,"[571.7000000001863]",1,0,0.474534919916369,0.52546508008363,0.45,0,2,5,0,0,0.050930160167261,0,0.55,1,0.7,0.15
145,0,"[515.3000000002794]",1,1,0.554214274557832,0.445785725442167,0.38,0,3,5,0,0,0.108428549115665,0,0.62,1,0.7,0.08
145,1,"[537.1000000000931]",1,1,0.553441998212892,0.446558001787107,0.54,0,4,5,0,0,0.106883996425785,1,0.46,1,0.7,0.24
145,0,"[585.1999999997206]",1,0,0.436196236251262,0.563803763748737,0.46,1,5,5,0,0,0.127607527497475,1,0.54,1,0.7,0.16
145,0,"[519]",1,0,0.465976244048298,0.534023755951701,0.36,1,6,5,0,0,0.068047511903403,1,0.64,1,0.7,0.0599999999999999
145,1,"[464.40000000037253]",1,1,0.591176272796032,0.408823727203967,0.32,1,7,5,0,0,0.182352545592065,1,0.68,1,0.7,0.0199999999999999
145,1,"[460]",1,1,0.574621355465298,0.425378644534702,0.17,1,8,5,0,0,0.149242710930596,1,0.83,1,0.7,0.13
145,1,"[444.6999999997206]",1,1,0.552536235007687,0.447463764992312,0.11,1,9,5,0,0,0.105072470015375,1,0.89,1,0.7,0.19
145,0,"[462.6999999997206]",1,0,0.433805911985639,0.56619408801436,0.25,0,10,5,0,0,0.132388176028721,1,0.75,1,0.7,0.05
145,1,"[495.5]",1,0,0.436694473634509,0.563305526365491,0.14,0,11,5,0,0,0.126611052730982,0,0.86,1,0.7,0.16
145,1,"[460.20000000018626]",1,1,0.564072390621984,0.435927609378015,0.26,0,12,5,0,0,0.128144781243969,1,0.74,1,0.7,0.04
145,0,"[521.3999999999069]",1,0,0.427255686940107,0.572744313059892,0.45,0,13,5,0,0,0.145488626119785,1,0.55,1,0.7,0.15
145,1,"[382.70000000018626]",1,0,0.454414015009483,0.545585984990516,0.39,0,14,5,0,0,0.0911719699810331,0,0.61,1,0.7,0.09
145,1,"[534.6000000000931]",1,1,0.529462617910478,0.470537382089522,0.37,1,15,5,0,0,0.058925235820956,1,0.63,1,0.7,0.07
145,0,"[594]",1,0,0.473853951561766,0.526146048438233,0.41,0,16,5,0,0,0.052292096876467,1,0.59,1,0.7,0.11
145,1,"[428.10000000009313]",1,0,0.41552362226676,0.584476377733239,0.25,0,17,5,0,0,0.168952755466479,0,0.75,1,0.7,0.05
145,1,"[451.60000000009313]",1,1,0.550802696898449,0.44919730310155,0.45,0,18,5,0,0,0.101605393796899,1,0.55,1,0.7,0.15
145,1,"[521.5]",1,1,0.523740286820563,0.476259713179436,0.46,1,19,5,0,0,0.047480573641127,1,0.54,1,0.7,0.16
145,1,"[444.5]",1,0,0.43695367427168,0.563046325728319,0.35,0,20,5,0,0,0.126092651456639,0,0.65,1,0.7,0.0499999999999999
145,0,"[482.60000000009313]",1,0,0.439289570171146,0.560710429828853,0.32,0,21,5,0,0,0.121420859657707,1,0.68,1,0.7,0.0199999999999999
145,0,"[416]",1,0,0.413180629122034,0.586819370877965,0.27,1,22,5,0,0,0.173638741755931,1,0.73,1,0.7,0.03
145,1,"[519]",1,1,0.553404722813601,0.446595277186398,0.2,1,23,5,0,0,0.106809445627203,1,0.8,1,0.7,0.1
145,1,"[504.3000000002794]",1,1,0.552703752363394,0.447296247636605,0.15,1,24,5,0,0,0.105407504726789,1,0.85,1,0.7,0.15
145,0,"[658.5999999996275]",1,0,0.419742536775663,0.580257463224336,0.14,0,25,5,0,0,0.160514926448673,1,0.86,1,0.7,0.16
145,0,"[873]",1,0,0.43847991772678,0.561520082273219,0.59,1,1,6,1,0,0.123040164546439,0,0.41,1,0.7,0.29
145,1,"[459.10000000009313]",1,1,0.559847810822168,0.440152189177831,0.45,0,2,6,1,0,0.119695621644337,0,0.55,1,0.7,0.15
145,1,"[740.2999999998137]",1,0,0.475797548598573,0.524202451401426,0.39,1,3,6,1,0,0.048404902802853,1,0.61,1,0.7,0.09
145,1,"[453.20000000018626]",1,0,0.467628955380871,0.532371044619128,0.54,0,4,6,1,0,0.064742089238257,1,0.46,1,0.7,0.24
145,0,"[568.2000000001863]",1,0,0.408595436493269,0.59140456350673,0.44,0,5,6,1,0,0.182809127013461,0,0.56,1,0.7,0.14
145,0,"[594.2000000001863]",1,1,0.538572059274631,0.461427940725368,0.58,1,6,6,1,0,0.077144118549263,1,0.42,1,0.7,0.28
145,1,"[453.89999999990687]",1,1,0.560354947216821,0.439645052783178,0.47,0,7,6,1,0,0.120709894433643,0,0.53,1,0.7,0.17
145,0,"[494]",1,1,0.568102375716862,0.431897624283137,0.58,1,8,6,1,0,0.136204751433725,1,0.42,1,0.7,0.28
145,1,"[372.5]",1,1,0.566619582398277,0.433380417601722,0.58,1,9,6,1,0,0.133239164796555,0,0.42,1,0.7,0.28
145,0,"[460.09999999962747]",1,1,0.574500374066772,0.425499625933227,0.59,1,10,6,1,0,0.149000748133545,1,0.41,1,0.7,0.29
145,1,"[368.5]",1,1,0.580556365491225,0.419443634508774,0.42,1,11,6,1,0,0.161112730982451,0,0.58,1,0.7,0.12
145,1,"[641]",1,0,0.497320217342715,0.502679782657284,0.62,1,12,6,1,0,0.00535956531456899,1,0.38,1,0.7,0.32
145,0,"[417.60000000009313]",1,0,0.41840990894628,0.581590091053719,0.42,0,13,6,1,0,0.163180182107439,0,0.58,1,0.7,0.12
145,1,"[496.70000000018626]",1,0,0.473181860770777,0.526818139229222,0.56,0,14,6,1,0,0.053636278458445,1,0.44,1,0.7,0.26
145,0,"[872.2999999998137]",1,1,0.511286920710311,0.488713079289688,0.45,1,15,6,1,0,0.022573841420623,1,0.55,1,0.7,0.15
145,0,"[490.39999999990687]",1,1,0.553842308298546,0.446157691701453,0.59,0,16,6,1,0,0.107684616597093,1,0.41,1,0.7,0.29
145,1,"[535.3999999999069]",1,1,0.588247376161485,0.411752623838514,0.47,0,17,6,1,0,0.176494752322971,0,0.53,1,0.7,0.17
145,0,"[649.6000000000931]",1,1,0.510262482728738,0.489737517271261,0.45,1,18,6,1,0,0.020524965457477,1,0.55,1,0.7,0.15
145,1,"[541.3000000002794]",1,0,0.496540761577645,0.503459238422354,0.42,1,19,6,1,0,0.00691847684470898,1,0.58,1,0.7,0.12
145,1,"[499.3000000002794]",1,0,0.434980365118399,0.5650196348816,0.55,0,20,6,1,0,0.130039269763201,1,0.45,1,0.7,0.25
145,0,"[584.2999999998137]",1,0,0.423060221487076,0.576939778512923,0.4,0,21,6,1,0,0.153879557025847,0,0.6,1,0.7,0.1
145,1,"[531.8999999999069]",1,0,0.487125596290312,0.512874403709687,0.57,1,22,6,1,0,0.025748807419375,1,0.43,1,0.7,0.27
145,1,"[444]",1,1,0.563924900053779,0.43607509994622,0.46,1,23,6,1,0,0.127849800107559,0,0.54,1,0.7,0.16
145,1,"[570.2000000001863]",1,0,0.473519894508844,0.526480105491155,0.46,1,24,6,1,0,0.052960210982311,1,0.54,1,0.7,0.16
145,1,"[665.3000000002794]",1,0,0.480501816492603,0.519498183507396,0.46,1,25,6,1,0,0.038996367014793,1,0.54,1,0.7,0.16
145,1,"[534.5]",3,1,0.878264048948184,0.121735951051815,0.44,0,1,7,0,1,0.756528097896369,1,0.44,3,0.7,0.26
145,0,"[449]",3,1,0.879459954079528,0.120540045920471,0.55,0,2,7,0,1,0.758919908159057,0,0.55,3,0.7,0.15
145,1,"[449.89999999990687]",3,1,0.920721718214541,0.0792782817854584,0.57,0,3,7,0,1,0.841443436429083,1,0.57,3,0.7,0.13
145,0,"[494.79999999981374]",3,0,0.129671468845445,0.870328531154554,0.45,1,4,7,0,1,0.740657062309109,1,0.45,3,0.7,0.25
145,0,"[592.5]",3,1,0.914417956493274,0.0855820435067258,0.59,0,5,7,0,1,0.828835912986548,0,0.59,3,0.7,0.11
145,0,"[542.8999999999069]",3,0,0.108965170100932,0.891034829899067,0.62,1,6,7,0,1,0.782069659798135,1,0.62,3,0.7,0.08
145,1,"[476.89999999990687]",3,1,0.931879018411513,0.0681209815884865,0.68,1,7,7,0,1,0.863758036823026,1,0.68,3,0.7,0.0199999999999999
145,0,"[634.5]",3,0,0.081592084074374,0.918407915925626,0.71,1,8,7,0,1,0.836815831851252,1,0.71,3,0.7,0.01
145,0,"[416.10000000009313]",3,0,0.148168784109964,0.851831215890036,0.57,0,9,7,0,1,0.703662431780072,1,0.57,3,0.7,0.13
145,0,"[399.10000000009313]",3,0,0.065514177647286,0.934485822352713,0.72,1,10,7,0,1,0.868971644705427,1,0.72,3,0.7,0.02
145,1,"[494.59999999962747]",3,1,0.858478030995499,0.1415219690045,0.74,1,11,7,0,1,0.716956061990999,1,0.74,3,0.7,0.04
145,1,"[521.1000000000931]",3,1,0.919841259754369,0.0801587402456302,0.65,0,12,7,0,1,0.839682519508739,1,0.65,3,0.7,0.0499999999999999
145,0,"[608.7999999998137]",3,0,0.134127121425056,0.865872878574943,0.59,0,13,7,0,1,0.731745757149887,1,0.59,3,0.7,0.11
145,1,"[526.8999999999069]",3,1,0.898033489258102,0.101966510741897,0.65,1,14,7,0,1,0.796066978516205,1,0.65,3,0.7,0.0499999999999999
145,0,"[558.1000000000931]",3,0,0.130239777302461,0.869760222697538,0.65,1,15,7,0,1,0.739520445395077,1,0.65,3,0.7,0.0499999999999999
145,0,"[433]",3,0,0.116598607500874,0.883401392499126,0.64,0,16,7,0,1,0.766802784998252,1,0.64,3,0.7,0.0599999999999999
145,0,"[829.8999999999069]",3,0,0.0848630338048715,0.915136966195128,0.74,1,17,7,0,1,0.830273932390256,1,0.74,3,0.7,0.04
145,0,"[410.40000000037253]",3,0,0.0765128933182058,0.923487106681794,0.74,1,18,7,0,1,0.846974213363588,1,0.74,3,0.7,0.04
145,0,"[516.1000000000931]",3,0,0.106477076302047,0.893522923697952,0.68,0,19,7,0,1,0.787045847395905,1,0.68,3,0.7,0.0199999999999999
145,1,"[439.79999999981374]",3,1,0.877670426183217,0.122329573816782,0.57,0,20,7,0,1,0.755340852366435,1,0.57,3,0.7,0.13
145,1,"[418]",3,0,0.0618717763643676,0.938128223635632,0.61,0,21,7,0,1,0.876256447271264,0,0.61,3,0.7,0.09
145,1,"[394.39999999990687]",3,1,0.866294031637521,0.133705968362478,0.64,1,22,7,0,1,0.732588063275043,1,0.64,3,0.7,0.0599999999999999
145,1,"[562]",3,1,0.8852980545516,0.114701945448399,0.64,1,23,7,0,1,0.770596109103201,1,0.64,3,0.7,0.0599999999999999
145,1,"[451.60000000009313]",3,1,0.856115382737588,0.143884617262411,0.67,1,24,7,0,1,0.712230765475177,1,0.67,3,0.7,0.0299999999999999
145,0,"[643.7999999998137]",3,0,0.0576677086982302,0.942332291301769,0.83,0,25,7,0,1,0.884664582603539,1,0.83,3,0.7,0.13
145,0,"[984]",1,1,0.570076102234868,0.429923897765131,0.63,1,1,8,1,1,0.140152204469737,1,0.63,1,0.7,0.07
145,0,"[680.6000000000931]",1,1,0.501505125058997,0.498494874941002,0.69,1,2,8,1,1,0.00301025011799505,1,0.69,1,0.7,0.01
145,0,"[503.1999999997206]",1,1,0.523141259491051,0.476858740508948,0.75,1,3,8,1,1,0.0462825189821029,1,0.75,1,0.7,0.05
145,0,"[506.60000000009313]",1,1,0.588195155240864,0.411804844759135,0.78,1,4,8,1,1,0.176390310481729,1,0.78,1,0.7,0.0800000000000001
145,1,"[485.79999999981374]",1,0,0.435021084703713,0.564978915296286,0.7,0,5,8,1,1,0.129957830592573,1,0.7,1,0.7,0
145,1,"[498.5]",1,0,0.404937466455787,0.595062533544212,0.75,1,6,8,1,1,0.190125067088425,1,0.75,1,0.7,0.05
145,0,"[595.1000000000931]",1,1,0.544436516089895,0.455563483910104,0.63,0,7,8,1,1,0.088873032179791,1,0.63,1,0.7,0.07
145,1,"[535.5]",1,0,0.412050371045791,0.587949628954208,0.58,0,8,8,1,1,0.175899257908417,1,0.58,1,0.7,0.12
145,1,"[701.5]",1,1,0.596422631750283,0.403577368249716,0.69,0,9,8,1,1,0.192845263500567,0,0.69,1,0.7,0.01
145,0,"[601.8999999999069]",1,1,0.588786662149791,0.411213337850208,0.58,0,10,8,1,1,0.177573324299583,1,0.58,1,0.7,0.12
145,1,"[455.40000000037253]",1,0,0.484888801574561,0.515111198425438,0.61,1,11,8,1,1,0.030222396850877,1,0.61,1,0.7,0.09
145,1,"[603.3000000002794]",1,1,0.563105340096656,0.436894659903343,0.65,0,12,8,1,1,0.126210680193313,0,0.65,1,0.7,0.0499999999999999
145,0,"[448]",1,1,0.551018094750001,0.448981905249998,0.56,0,13,8,1,1,0.102036189500003,1,0.56,1,0.7,0.14
145,1,"[458.40000000037253]",1,0,0.474240501089991,0.525759498910008,0.68,1,14,8,1,1,0.051518997820017,1,0.68,1,0.7,0.0199999999999999
145,0,"[417.3000000002794]",1,1,0.567531389764229,0.43246861023577,0.67,1,15,8,1,1,0.135062779528459,1,0.67,1,0.7,0.0299999999999999
145,1,"[456.6999999997206]",1,0,0.438325565352373,0.561674434647627,0.69,1,16,8,1,1,0.123348869295254,1,0.69,1,0.7,0.01
145,1,"[859.8000000002794]",1,0,0.484016133561251,0.515983866438748,0.53,0,17,8,1,1,0.031967732877497,1,0.53,1,0.7,0.17
145,0,"[454.39999999990687]",1,1,0.547003922488873,0.452996077511126,0.75,1,18,8,1,1,0.0940078449777469,1,0.75,1,0.7,0.05
145,1,"[726.1000000000931]",1,1,0.51710729024118,0.482892709758819,0.45,1,19,8,1,1,0.034214580482361,0,0.45,1,0.7,0.25
145,1,"[458]",1,0,0.463996385796702,0.536003614203297,0.7,1,20,8,1,1,0.072007228406595,1,0.7,1,0.7,0
145,0,"[532.2999999998137]",1,0,0.432721541629123,0.567278458370876,0.45,1,21,8,1,1,0.134556916741753,0,0.45,1,0.7,0.25
145,1,"[440.79999999981374]",1,0,0.446971685075537,0.553028314924462,0.66,1,22,8,1,1,0.106056629848925,1,0.66,1,0.7,0.0399999999999999
145,1,"[550.3999999999069]",1,1,0.578077124623033,0.421922875376966,0.61,0,23,8,1,1,0.156154249246067,0,0.61,1,0.7,0.09
145,1,"[520.2000000001863]",1,0,0.488076130982892,0.511923869017107,0.68,1,24,8,1,1,0.023847738034215,1,0.68,1,0.7,0.0199999999999999
145,0,"[511.5]",1,0,0.466967887334076,0.533032112665923,0.63,0,25,8,1,1,0.066064225331847,0,0.63,1,0.7,0.07
145,1,"[723.1000000000931]",1,0,0.440537876890399,0.5594621231096,0.53,0,1,9,0,1,0.118924246219201,0,0.53,1,0.7,0.17
145,1,"[507.09999999962747]",1,1,0.580964191221505,0.419035808778494,0.47,0,2,9,0,1,0.161928382443011,1,0.47,1,0.7,0.23
145,0,"[665.7999999998137]",1,1,0.512039705659905,0.487960294340094,0.56,0,3,9,0,1,0.024079411319811,0,0.56,1,0.7,0.14
145,0,"[430.89999999990687]",1,1,0.560377637065465,0.439622362934534,0.57,1,4,9,0,1,0.120755274130931,0,0.57,1,0.7,0.13
145,1,"[564.2000000001863]",1,1,0.513969536474917,0.486030463525082,0.54,1,5,9,0,1,0.0279390729498351,1,0.54,1,0.7,0.16
145,0,"[693.4000000003725]",1,0,0.446475873126511,0.553524126873488,0.6,1,6,9,0,1,0.107048253746977,1,0.6,1,0.7,0.1
145,1,"[383.09999999962747]",1,1,0.565023671989318,0.434976328010681,0.6,1,7,9,0,1,0.130047343978637,1,0.6,1,0.7,0.1
145,0,"[450.60000000009313]",1,0,0.40989435659061,0.590105643409389,0.65,1,8,9,0,1,0.180211286818779,1,0.65,1,0.7,0.0499999999999999
145,1,"[439.10000000009313]",1,0,0.499960830844019,0.50003916915598,0.54,0,9,9,0,1,7.83383119610237e-05,0,0.54,1,0.7,0.16
145,0,"[455]",1,0,0.446986217749253,0.553013782250746,0.53,0,10,9,0,1,0.106027564501493,1,0.53,1,0.7,0.17
145,0,"[436.59999999962747]",1,0,0.422346994215995,0.577653005784004,0.59,1,11,9,0,1,0.155306011568009,1,0.59,1,0.7,0.11
145,0,"[483.39999999990687]",1,0,0.415211825424313,0.584788174575686,0.53,0,12,9,0,1,0.169576349151373,1,0.53,1,0.7,0.17
145,1,"[435.29999999981374]",1,1,0.506384051571466,0.493615948428533,0.62,1,13,9,0,1,0.012768103142933,1,0.62,1,0.7,0.08
145,1,"[422.79999999981374]",1,1,0.551148542218707,0.448851457781292,0.54,0,14,9,0,1,0.102297084437415,1,0.54,1,0.7,0.16
145,1,"[428.10000000009313]",1,0,0.40247880914242,0.597521190857579,0.57,0,15,9,0,1,0.195042381715159,0,0.57,1,0.7,0.13
145,0,"[489]",1,0,0.476134160454828,0.523865839545171,0.58,0,16,9,0,1,0.047731679090343,1,0.58,1,0.7,0.12
145,1,"[814.8000000002794]",1,1,0.519698977042982,0.480301022957017,0.64,1,17,9,0,1,0.039397954085965,1,0.64,1,0.7,0.0599999999999999
145,1,"[421.3000000002794]",1,1,0.561060064139481,0.438939935860518,0.58,0,18,9,0,1,0.122120128278963,1,0.58,1,0.7,0.12
145,0,"[662.3999999999069]",1,0,0.481408196610984,0.518591803389015,0.61,1,19,9,0,1,0.037183606778031,1,0.61,1,0.7,0.09
145,0,"[743.4000000003725]",1,1,0.534408784850163,0.465591215149836,0.75,0,20,9,0,1,0.068817569700327,0,0.75,1,0.7,0.05
145,1,"[443.89999999990687]",1,1,0.561166811962815,0.438833188037184,0.75,1,21,9,0,1,0.122333623925631,1,0.75,1,0.7,0.05
145,1,"[388.79999999981374]",1,1,0.584460295583977,0.415539704416022,0.83,1,22,9,0,1,0.168920591167955,1,0.83,1,0.7,0.13
145,0,"[466.60000000009313]",1,0,0.45914994272408,0.540850057275919,0.87,1,23,9,0,1,0.081700114551839,1,0.87,1,0.7,0.17
145,0,"[578.4000000003725]",1,0,0.428372097386943,0.571627902613056,0.72,0,24,9,0,1,0.143255805226113,1,0.72,1,0.7,0.02
145,1,"[355.1999999997206]",1,0,0.454721132845421,0.545278867154578,0.72,0,25,9,0,1,0.090557734309157,0,0.72,1,0.7,0.02
145,0,"[814.1000000000931]",2,0,0.448053137228284,0.551946862771715,0.58,0,1,10,1,1,0.103893725543431,0,0.58,2,0.9,0.32
145,0,"[462.90000000037253]",2,1,0.545564808088555,0.454435191911444,0.64,1,2,10,1,1,0.091129616177111,1,0.64,2,0.9,0.26
145,1,"[393.8000000002794]",2,0,0.427756944703206,0.572243055296793,0.67,1,3,10,1,1,0.144486110593587,1,0.67,2,0.9,0.23
145,0,"[573.3000000002794]",2,1,0.577939080641532,0.422060919358467,0.8,1,4,10,1,1,0.155878161283065,1,0.8,2,0.9,0.1
145,1,"[540.8999999999069]",2,0,0.430668315945221,0.569331684054779,0.81,1,5,10,1,1,0.138663368109558,1,0.81,2,0.9,0.09
145,1,"[839.2000000001863]",2,0,0.488063817120048,0.511936182879951,0.84,1,6,10,1,1,0.023872365759903,1,0.84,2,0.9,0.0600000000000001
145,0,"[770.8999999999069]",2,1,0.507482549400604,0.492517450599395,0.87,1,7,10,1,1,0.014965098801209,1,0.87,2,0.9,0.03
145,0,"[497.39999999990687]",2,1,0.570517853219767,0.429482146780232,0.86,1,8,10,1,1,0.141035706439535,1,0.86,2,0.9,0.04
145,1,"[461.5]",2,0,0.412938541487962,0.587061458512037,0.89,1,9,10,1,1,0.174122917024075,1,0.89,2,0.9,0.01
145,0,"[627.3999999999069]",2,1,0.528225384552286,0.471774615447713,0.89,1,10,10,1,1,0.056450769104573,1,0.89,2,0.9,0.01
145,0,"[429.59999999962747]",2,1,0.547106850975507,0.452893149024492,0.93,1,11,10,1,1,0.094213701951015,1,0.93,2,0.9,0.03
145,1,"[378.8000000002794]",2,0,0.417715062087448,0.582284937912551,0.96,1,12,10,1,1,0.164569875825103,1,0.96,2,0.9,0.0599999999999999
145,0,"[454.59999999962747]",2,1,0.567995226190986,0.432004773809013,0.98,1,13,10,1,1,0.135990452381973,1,0.98,2,0.9,0.08
145,0,"[476.60000000009313]",2,1,0.522610470403987,0.477389529596012,0.96,1,14,10,1,1,0.045220940807975,1,0.96,2,0.9,0.0599999999999999
145,0,"[577.3000000002794]",2,1,0.536006030992579,0.46399396900742,0.98,1,15,10,1,1,0.072012061985159,1,0.98,2,0.9,0.08
145,1,"[432.5]",2,0,0.444435311297277,0.555564688702722,1,1,16,10,1,1,0.111129377405445,1,1,2,0.9,0.1
145,1,"[411.10000000009313]",2,0,0.430504124051902,0.569495875948097,1,1,17,10,1,1,0.138991751896195,1,1,2,0.9,0.1
145,0,"[587.3000000002794]",2,1,0.537836484566393,0.462163515433606,1,1,18,10,1,1,0.075672969132787,1,1,2,0.9,0.1
145,0,"[501.3000000002794]",2,1,0.548383764414658,0.451616235585341,1,1,19,10,1,1,0.096767528829317,1,1,2,0.9,0.1
145,1,"[850.6000000000931]",2,1,0.504289782884572,0.495710217115427,1,0,20,10,1,1,0.00857956576914504,0,1,2,0.9,0.1
145,0,"[417.20000000018626]",2,1,0.579198321495053,0.420801678504947,0.99,1,21,10,1,1,0.158396642990106,1,0.99,2,0.9,0.09
145,1,"[436.5]",2,0,0.443380496043849,0.556619503956151,1,1,22,10,1,1,0.113239007912302,1,1,2,0.9,0.1
145,1,"[478.1999999997206]",2,0,0.457980074855129,0.54201992514487,1,1,23,10,1,1,0.084039850289741,1,1,2,0.9,0.1
145,1,"[618.5]",2,0,0.472598913438938,0.527401086561061,1,1,24,10,1,1,0.054802173122123,1,1,2,0.9,0.1
145,1,"[389]",2,0,0.404240443158173,0.595759556841826,1,1,25,10,1,1,0.191519113683653,1,1,2,0.9,0.1
145,0,"[669]",2,0,0.49108916945464,0.508910830545359,0.45,1,1,11,0,1,0.017821661090719,1,0.45,2,0.9,0.45
145,0,"[631.2999999998137]",2,1,0.519002045009891,0.480997954990108,0.53,0,2,11,0,1,0.038004090019783,0,0.53,2,0.9,0.37
145,0,"[532.8999999999069]",2,1,0.571290319370315,0.428709680629684,0.6,0,3,11,0,1,0.142580638740631,0,0.6,2,0.9,0.3
145,1,"[466.39999999990687]",2,1,0.536050472894514,0.463949527105485,0.62,1,4,11,0,1,0.072100945789029,1,0.62,2,0.9,0.28
